2021-01-03,b'RT @portefeuillefun: We know the time interval between 1st and 2nd dose chosen for the phase 3 trials of the #mRNA vaccines by #BioNTech /\xe2\x80\xa6'
2021-01-03,b'$AZN vs $PFE vs $MRNA for #EmergingMarkets #logistics and cost https://t.co/zMFWvcJywA'
2021-01-03,b'Create watchlist to track major constituents of #Nasdaq 100 $RDS $BP $AZN https://t.co/aT2aUz8Ka2 https://t.co/1Hr4v6roZO'
2021-01-03,"b'RT @BursatilBiotech: BTW, when did this happen? Any idea where is the PR from $AZN announcing a collab research with the russians who creat\xe2\x80\xa6'"
2021-01-03,b'We know the time interval between 1st and 2nd dose chosen for the phase 3 trials of the #mRNA vaccines by #BioNTech / #Pfizer and #Moderna. \n\nBut what will turn out to be the interval that produces the highest vaccine efficacy (say 4w post dose #2)?\n$AZN $BNTX $PFE $MRNA'
2021-01-03,b'... even if you were utterly convinced that that would be the better choice from a vaccine efficacy point of view.\n\n$AZN $BNTX $PFE $MRNA #AstraZeneca #BioNTech #Pfizer #Moderna #SARSCoV2 #COVID19 #coronavirus #vaccines.'
2021-01-03,b'Get tweets in 1 watchlist for Social Media stocks $RDS $BP $AZN https://t.co/OuxH4yq3Yq https://t.co/gU6I5NSEqQ'
2021-01-03,b'S. African Health Minister Said Aim Is to Get Covid-19 Vaccines as Soon as February; Vaccinate Minimum of 67% of Population to Reach Covid-19 Herd Immunity; Said Discussions Have Been...\n\nRelated Tickers: $AZN $BNTX $JNJ $MRNA $PFE\nRead more at: https://t.co/VL67biuZzm'
2021-01-03,"b'.@AstraZeneca #COVID19 Vaccine Gets Green Light In #India\n\nWith 1.4B people, the $AZN #vaccine at $3/dose (licensed to CEPI &amp; SIIPL for manufacturing) is the only viable immunization plan outside of locally developed COVAXIN.\n\n$MRNA $PFE $JNJ $MRK $GSK https://t.co/ff5dd3PYXz'"
2021-01-03,b'RT @pharmalot: Indian regulators are urged to release trial protocol for the Serum Institute Covid-19 vaccine... BUT.. you can read the pro\xe2\x80\xa6'
2021-01-03,"b'RT @BursatilBiotech: They approached $AZN via TWTR! Look at that!\n\nLesson here: \nNever, ever, underestimate the power of Biotwitter \xf0\x9f\x98\x8e'"
2021-01-03,"b'RT @BursatilBiotech: BTW, when did this happen? Any idea where is the PR from $AZN announcing a collab research with the russians who creat\xe2\x80\xa6'"
2021-01-03,"b'@Biotechs_R_Us @ByMadeleineA @JacobPlieth this is very cool, though a stupid deal for $AZN tbh why do they need them?'"
2021-01-03,"b'RT @BertrandBio: India\xf0\x9f\x87\xae\xf0\x9f\x87\xb3 approves AstraZeneca $AZN and local COVID vaccines, roll out seen soon https://t.co/tQq7IayEvt'"
2021-01-03,"b'They approached $AZN via TWTR! Look at that!\n\nLesson here: \nNever, ever, underestimate the power of Biotwitter \xf0\x9f\x98\x8e https://t.co/sySeWcAjIM'"
2021-01-03,"b""@BursatilBiotech @ByMadeleineA @JacobPlieth Tough question. It's Sputnik or $AZN, or Sputnik or nothing?"""
2021-01-03,"b'India\xf0\x9f\x87\xae\xf0\x9f\x87\xb3 approves AstraZeneca $AZN and local COVID vaccines, roll out seen soon https://t.co/tQq7IayEvt'"
2021-01-03,"b'RT @BursatilBiotech: Curious thing that across Covid Vaxs ( $MRNA, $PFE, $AZN &amp; the russian) there all seem to share some common ground in\xe2\x80\xa6'"
2021-01-03,b'@wernermeir $AZN $49.91 Not liking the Daily at all and even the 15 min chart is in a relatively steep downtrend.  It may pop here and there. IMO it needs time to base out and put together a Bullish setup https://t.co/qWSDHOztTc'
2021-01-03,"b'BTW, when did this happen? Any idea where is the PR from $AZN announcing a collab research with the russians who created Sputnik? \nHeadline says AZN &amp; the russian lab expect to combine vaccines so as to reach 2yr immunity against Covid\ncc @ByMadeleineA @JacobPlieth https://t.co/xqnrRtB7gf'"
2021-01-03,"b'Very nice article by @Bob_Wachter and @ashishkjha, summarising the ""delayed second dose"" discussion https://t.co/t8Two5cNKv. They are clearly in favour of the delay. As is almost everyone else by now, see https://t.co/ARqTr4pIve :)\n\n$AZN $BNTX $PFE $MRNA #SARSCoV2 #COVID19'"
2021-01-03,"b'UPDATE 5-India approves AstraZeneca and local COVID vaccines, roll out seen soon $AZN $PFE https://t.co/Jh8YkPSSBJ'"
2021-01-03,"b'India approves AstraZeneca and local COVID vaccines, roll out seen soon $AZN $PFE https://t.co/nMGgkFwOYw'"
2021-01-03,"b'India approves AstraZeneca and local Covid vaccines, rollout in weeks! The world\xe2\x80\x99s second most populous country is now expected to start a massive immunization program within week! $AZN #COVID19 #vaccine #India\nhttps://t.co/RYQ7ezDFiX'"
2021-01-03,"b'Curious thing that across Covid Vaxs ( $MRNA, $PFE, $AZN &amp; the russian) there all seem to share some common ground in terms of CNS lesion as AE. Wonder if as Covid is a vascular disease, vaccines are likely to trigger neuro symptoms in a specific subgroup https://t.co/SHkPBgpAZM'"
2021-01-03,"b""$AZN ASTRAZENECA: SERUM INSTITUTE HAS PRODUCED AROUND 50 MILLION DOSAGES OF THE OXFORD-ASTRAZENECA COVID-19 VACCINE 'COVISHIELD' AND PLANS TO SCALE IT UP TO 100 MILLION BY MAR."""
2021-01-03,"b""$AZN ASTRAZENECA: SERUM INSTITUTE HAS PRODUCED AROUND 50 MILLION DOSAGES OF THE OXFORD-ASTRAZENECA COVID-19 VACCINE 'COVISHIELD' AND PLANS TO SCALE IT UP TO 100 MILLION BY MAR."""
2021-01-03,"b""Another ICYMI. I've also gathered a list of experts. Obviously just my very subjective choice :)\n\n$AZN $BNTX $PFE $MRNA #AstraZeneca #BioNTech #Pfizer #Moderna #SARSCoV2 #COVID19 #coronavirus #vaccines https://t.co/0LrDHGnDdA"""
2021-01-03,b'$AZN ASTRAZENECA: VACCINE PRICE FIXED AT $2.74 DOSE FOR GOVT OF INDIA; PRIVATE MARKET PRICE WILL BE $13.7/DOSE.'
2021-01-03,"b'ICYMI. I\'ve put together a list of posts / threads on the ""delayed second dose"" topic.\n\n$AZN $BNTX $PFE $MRNA #AstraZeneca #BioNTech #Pfizer #Moderna #SARSCoV2 #COVID19 #coronavirus #vaccines https://t.co/ARqTr4pIve'"
2021-01-03,"b""$AZN ASTRAZENECA : INDIA'S SERUM INSTITUTE SAYS TO MEET LOCAL DEMAND FOR ASTRAZENECA VACCINE FOR NEXT TWO MONTHS, BEFORE EXPORTING."""
2021-01-03,"b'Africa Left With Few Options for Vaccines, South Africa Says. $PFE $AZN $MRNA $BNTX - Bloomberg\nhttps://t.co/1ANnHEGJQM'"
2021-01-03,"b'2/2 India\xe2\x80\x99s drugs regulator gave final approval for the emergency-use of two coronavirus vaccines, one developed by AstraZeneca and Oxford University and the other by local company Bharat Biotech! $AZN #COVID19 #vaccine #India\nhttps://t.co/yLcSg2ajH1'"
2021-01-03,"b'1/2 India approves AstraZeneca and local Covid vaccines, rollout in weeks! $AZN #COVID19 #vaccine #India\nhttps://t.co/yLcSg2ajH1'"
2021-01-03,"b'Brazil to import 2 mln AstraZeneca vaccine doses, not yet approved for use $AZN https://t.co/VDlFiDJapW'"
2021-01-03,"b'Talking About Vaccine News, Oil Predictions, and More @themotleyfool #stocks $AZN $AAPL $PFE $JNJ $AMZN $XOM $MRNA https://t.co/iYRVVAeT5V'"
2021-01-03,b'Can\xe2\x80\x99t wait for Monday $ocgn $ctrm $azn https://t.co/pMx6A5BKAq'
2021-01-03,"b'Pfizer, Bointech Offers to Supply 50M Doses for Health Workers in Africa; Moderna, AstraZeneca have No Vaccines Available for Africa\n\nRelated Tickers: $AZN $BNTX $MRNA $PFE $SPY\nRead more at: https://t.co/tnQV52AFvV'"
2021-01-03,"b""@Reuters UK's PM Johnson: I will carry on as PM after Brexit.\n\nUK's PM Johnson: I hope we will do tens of millions of vaccinations in the next few months.\n\nUK's PM Johnson: On Monday there will be 530,000 AstraZeneca vaccines ready. $AZN\n\nFollow me for live updates!"""
2021-01-03,"b""UK'S PM JOHNSON: ON MONDAY THERE WILL BE 530,000 ASTRAZENECA VACCINES READY. $AZN $GBP #UK #BREXIT"""
2021-01-03,"b""UK'S PM JOHNSON: I HOPE WE WILL DO TENS OF MILLIONS OF VACCINATIONS IN THE NEXT FEW MONTHS. $AZN $GBP #UK #BREXIT"""
2021-01-03,"b'$AZN India approves AstraZeneca and local COVID vaccines, rollout soon https://t.co/1j3zbZwSjL'"
2021-01-03,"b""UK's PM Johnson: On Monday there will be 530,000 AstraZeneca vaccines ready. $AZN"""
2021-01-03,"b'$AZN.PLC Oxford-AstraZeneca, local COVID vaccines given urgent approval in India https://t.co/sXlkCrJafQ'"
2021-01-03,"b'. $AZN emerges as a volume producer  due to its manufacturing facilities. India\xe2\x80\x99s serum institute, the largest vaccine producer in the world to increase production from 50 M to 100 M doses a month of just approved vaccine in India. @joebiden to pl. do same, increase &amp; expedite https://t.co/qTnWcn6mNa'"
2021-01-03,"b""KOLKATA/AHMEDABAD, India The Serum Institute of India, the largest vaccine maker in the \xf0\x9f\x8c\x8d &amp; local maker of the Oxford/AstraZeneca coronavirus vaccine, said it has approved $AZN \naccording to Serum's Chief Executive Adar Poonawalla https://t.co/bcbpAcxuT4"""
2021-01-03,b'Create watchlist to track major constituents of #Nasdaq 100 $RDS $BP $AZN https://t.co/aT2aUz8Ka2 https://t.co/WKNVH3RXMV'
2021-01-03,b'AstraZeneca\xe2\x80\x99s COVID-19 Vaccine Wins Emergency Use Approval In India \xe2\x80\x93 Report https://t.co/19oTMYWT4Y #markets #trading #stocks $AZN'
2021-01-03,b'Get tweets in 1 watchlist for Social Media stocks $RDS $BP $AZN https://t.co/OuxH4yq3Yq https://t.co/JmOtAyJBW5'
2021-01-03,"b'UK PM JOHNSON SAYS HOPE WE WILL DO TENS OF MILLION OF VACCINATIONS IN NEXT FEW MONTHS \nJOHNSON SAYS ON MONDAY THERE WILL BE 530,000 ASTRAZENECA $AZN VACCINES READY'"
2021-01-03,"b'Also felt lucky to grab some $APT under $11, so that makes at least two of us \xf0\x9f\x92\xaa Avg is still low $11s so maybe they\xe2\x80\x99ll give us another shot at adding more \xf0\x9f\xa4\xb7\xe2\x80\x8d\xe2\x99\x82\xef\xb8\x8f \n\n#CovidStocks \xf0\x9f\xa6\xa0 $AHPI $LAKE $OPK $CODX $ALT $ABT $APM $BCRX $VXRT $SRNE $MRNA $NVAX $INO $GILD $AZN $PFE $MRK $JNJ https://t.co/lQvPdFh3Fu'"
2021-01-03,"b""RT @joe31756: $AZN.PLC Factbox-How AstraZeneca-Oxford developed Britain's homegrown COVID-19 vaccine | Reuters https://t.co/YLcQWvpLgF"""
2021-01-03,"b""$AZN.PLC Factbox-How AstraZeneca-Oxford developed Britain's homegrown COVID-19 vaccine | Reuters https://t.co/YLcQWvpLgF"""
2021-01-03,"b'UPDATE 3-India approves AstraZeneca and local COVID vaccines, rollout soon $AZN $PFE https://t.co/NfjR0TeEzf'"
2021-01-03,"b'India approves AstraZeneca and local COVID vaccines, rollout soon $AZN https://t.co/9ELJ6NI2JR'"
2021-01-03,"b'India approves AstraZeneca and local COVID vaccines, rollout in weeks $AZN https://t.co/u5sHZSRmDy'"
2021-01-03,"b'UPDATE 2-India approves AstraZeneca and local COVID vaccines, rollout in weeks $AZN https://t.co/W1A0lyMQMI'"
2021-01-03,b'UPDATE 1-India gives final urgent-use approval to AstraZeneca and local COVID vaccines $AZN https://t.co/acgJd6QMPw'
2021-01-03,b'India gives final urgent-use approval to AstraZeneca and local COVID vaccines $AZN https://t.co/1fLpXTcIdM'
2021-01-03,"b'India gives final urgent-use approval to AstraZeneca, local COVID vaccines $AZN https://t.co/MNce3DD6Mq'"
2021-01-03,"b'Talking About Vaccine News, Oil Predictions, and More $AZN https://t.co/vpZVKiL2Ou $SPY'"
2021-01-03,"b""@AlexBerenson @pfizer yeah but he wasn't wearing his #mask correctly Alex, it's his own damn fault\n\n$PFE $MRNA $AZN $NVAX"""
2021-01-03,b'Mexican doctor hospitalized after receiving COVID-19 vaccine\n$PFE $BNTX $MRNA $AZN $SPX $FUBU $SPY $BTC \nhttps://t.co/WPBWwtUUvS'
2021-01-03,"b'$RCUS \xe2\x80\x94 TIGIT \xe2\x80\x94 $GILD / $AZN \n\nIt\xe2\x80\x99s clear that a big part of:\n\n$GILD &lt;\xe2\x80\x94&gt; $RCUS \n\nwas $GILD gaining access to PD-1, $RCUS zimberelimab. \n\nHowever, when it comes to testing TIGIT (domvanalimab) efficacy, looks like $GILD wanted to use an already approved PD-1, $AZN imfinzi:\n    . https://t.co/LA6FoBov8f https://t.co/XRKU7Vyzrv'"
2021-01-03,b'Create watchlist to track major constituents of #Nasdaq 100 $RDS $BP $AZN https://t.co/aT2aUz8Ka2 https://t.co/qbK0neaqsr'
2021-01-03,"b'Awesome list. My picks from Dr. P\xe2\x80\x99s list: 7, 8, 3, 4, 6. \n$AZN $TYME $RCUS @PanCAN https://t.co/vyx7vJB4kF'"
2021-01-03,"b'@CT_Bergstrom FYI remaining OWS vaccines if EUA ~30 days from efficacy:\n- $JNJ EUA ~2/28, 100M 1x-doses, enrolled 12/17, efficacy ~1/31.\n- $AZN EUA ~4/15, 300M doses, enroll start 9/1, efficacy ~2/28.\n- $NVAX EUA ~5/31, 100M doses, enroll start 12/28, efficacy ~4/30.\n- $SNY delayed,100M doses.'"
2021-01-03,"b'$AZN Sentiment is highly favorable right now.\nNews mentions: positive (24), negative (0), neutral (2)\nOur Sentiment Score: +1.462 (scale of -1.5 to +1.5)\nStock alerts, news, and research tools at https://t.co/Qkw92RLxV8\n#daytrading #stocks'"
2021-01-03,"b'Another great post by @sciencescanner, this one on the ""delayed second dose discussion"" https://t.co/jNidSr1acB!\n\n$AZN $BNTX $PFE #AstraZeneca #BioNTech #Pfizer #SARSCoV2 #COVID19 #coronavirus #vaccines'"
2021-01-02,b'RT @EmergingGrowth1: $RSPI RespireRx Pharmaceuticals Inc. (RSPI) Announces $2 Million Funding Commitment\n\nhttps://t.co/Ba6Iukhqzq\n\n$CYDY $A\xe2\x80\xa6'
2021-01-02,b'$BIELTo Release Details On Acquisition Negotiations Happening Behind The Scenes In Massachusetts\nhttps://t.co/Mv3xmUrTi2\n\n$KGKG $SBFM $PDMI $ENIA $ZION $RIO $AZN $MBT $EL $ICE $STAY $ESRX $MUR $DFS'
2021-01-02,"b'@Biohazard3737 @gmt9992 @avidresearch Risk to harder to make biologics like ADC and bispecfic isn\xe2\x80\x99t necessarily biosimilar rather improvements by others that could make earlier version outdated, for example $AZN Daiichi\xe2\x80\x99s anti-TROP2 ADC and significant improvements in newer CD20xCD3 and BCMAxCD3 bispecfic already.'"
2021-01-02,b'4 Reasons to Buy AstraZeneca Stock Now @themotleyfool #stocks $AZN $ALXN $DSNKY https://t.co/8YlWrRDpVR'
2021-01-02,"b'Oxford/AstraZeneca (AZN): As the world knows, this adenovirus vector vaccine has been a messy one. I think that b  $AZN https://t.co/YDUCWkxk3T'"
2021-01-02,"b'Oxford/AstraZeneca (AZN): As the world knows, this adenovirus vector vaccine has been a messy one. I think that b  $AZN https://t.co/vKxmXekYhs'"
2021-01-02,"b'Oxford/AstraZeneca (AZN): As the world knows, this adenovirus vector vaccine has been a messy one. I think that b  $AZN https://t.co/5oLPiBVBpr'"
2021-01-02,b'$RCUS ( $GILD $AZN )\n\nWill be a highly interesting 2021 for Arcus. \n\nA lot going on under the hood with their CTs that should elucidate important components of I/O modalities: \n\n- TIGIT \n- CD73 \xe2\x80\x94 Adenosine / Receptor'
2021-01-02,"b'RT @HaltTrade: $AZN Sentiment is highly favorable right now.\nNews mentions: positive (23), negative (0), neutral (3)\nOur Sentiment Score: +\xe2\x80\xa6'"
2021-01-02,b'Discover how to Copy Strategies on the Social Trading \nJoin free now for link \xe2\xac\x87\xef\xb8\x8f\xe2\xac\x87\xef\xb8\x8f\nhttps://t.co/pGEcfgEZ6r\n\n$fb $nflx $sbux $zm #ddtg $wmt $aapl $ino $nvda $amd $aapl $uvxy $sbux $msft $twtr $roku $nkla $regn $azn $idex $mrna $plug $solo $wkhs $crm $work $crwd $snow $splk $spot https://t.co/fFxLiSer1m'
2021-01-02,"b'RT @Benzinga: ""What You Have Been Missing!"" FIND OUT! @Benzinga\nPreMarket Prep | Trade ideas &amp; Market Structure  \nhttps://t.co/H7SKDZy7cP\xe2\x80\xa6'"
2021-01-02,b'RT @Dwill2win2: So I guess $ocgn isn\xe2\x80\x99t the only COVID stock to rally PM Monday $azn https://t.co/4wJjcmp1Qw'
2021-01-02,b'4 Reasons to Buy AstraZeneca stock NOW! \n\nBullish $AZN\n\n#stocks #investing #wallstreet #pennystocks #forex #stock #tesla #forex #gamingstocks #stockstobuy #trade #trading #daytrading #daytrader #investment #investors #bloomberg #AZN #tech #stockmarket\n\nhttps://t.co/Zzpt2G3fSU'
2021-01-02,b'4 Reasons to Buy AstraZeneca stock NOW! \n\nBullish $AZN\n\n#stocks #investing #wallstreet #pennystocks #forex #stock #tesla #forex #gamingstocks #stockstobuy #trade #trading #daytrading #daytrader #investment #investors #bloomberg #AZN #aktie #stockmarket\n\nhttps://t.co/Zzpt2G3fSU'
2021-01-02,b'4 Reasons to Buy AstraZeneca Stock Now @themotleyfool #stocks $AZN $ALXN $DSNKY https://t.co/80488rCWY3'
2021-01-02,"b'Yes, finally someone (else) spells it out https://t.co/TRV6LiA6s0 :)\n\n$AZN $BNTX $PFE #AstraZeneca #BioNTech #Pfizer #SARSCoV2 #COVID19 #coronavirus #vaccines https://t.co/gXRLLqDmay'"
2021-01-02,"b'RT @Benzinga: ""What You Have Been Missing!"" FIND OUT! @Benzinga\nPreMarket Prep | Trade ideas &amp; Market Structure  \nhttps://t.co/H7SKDZy7cP\xe2\x80\xa6'"
2021-01-02,"b'RT @Benzinga: ""What You Have Been Missing!"" FIND OUT! @Benzinga\nPreMarket Prep | Trade ideas &amp; Market Structure  \nhttps://t.co/H7SKDZy7cP\xe2\x80\xa6'"
2021-01-02,"b'RT @Benzinga: ""What You Have Been Missing!"" FIND OUT! @Benzinga\nPreMarket Prep | Trade ideas &amp; Market Structure  \nhttps://t.co/H7SKDZy7cP\xe2\x80\xa6'"
2021-01-02,"b'RT @Benzinga: ""What You Have Been Missing!"" FIND OUT! @Benzinga\nPreMarket Prep | Trade ideas &amp; Market Structure  \nhttps://t.co/H7SKDZy7cP\xe2\x80\xa6'"
2021-01-02,"b'""What You Have Been Missing!"" FIND OUT! @Benzinga\nPreMarket Prep | Trade ideas &amp; Market Structure  \nhttps://t.co/H7SKDZy7cP\n\nSpecial Thanks @TripleDTrader @STORYInvestors @SJisrael \n$AAL $PFE $UAL $BAC $GS $FLIR $ZM $PTON $JETS $LUV $DAL $CCL $NCLH $RCL $LOGI $MRNA $AZN $PENN https://t.co/nNuRc1fOOd'"
2021-01-02,"b""*India's drug regulator likely to propose a two-dose regimen for AstraZeneca, local vaccine, each four weeks apart -Sources seen by RTRS (Radio Televizija Republike Srpske)\n\n$AZN"""
2021-01-02,"b""INDIA'S DRUG REGULATOR LIKELY TO PROPOSE TWO-DOSE REGIMEN FOR ASTRAZENECA, LOCAL VACCINE, EACH FOUR WEEKS APART - SOURCES SEEN BY RTRS. $AZN"""
2021-01-02,"b""India's drug regulator likely to propose two-dose regimen for AstraZeneca, local vaccine, each four weeks apart - sources seen by RTRS. $AZN"""
2021-01-02,b'RT @MarcJacksonLA: $AZN AstraZeneca to double COVID-19 vaccine production to 2 million a week - Business Insider https://t.co/ro69hz5q2B'
2021-01-02,"b""RT @StockMKTNewz: AstraZeneca $AZN and the University of Oxford's COVID-19 vaccine has officially received regulatory approval for emergenc\xe2\x80\xa6"""
2021-01-02,b'$AZN 4 Reasons to Buy AstraZeneca Stock Now @themotleyfool #stocks $AZN $ALXN $DSNKY https://t.co/dPXpwFxkOa'
2021-01-02,b'$AZN AstraZeneca to double COVID-19 vaccine production to 2 million a week - Business Insider https://t.co/ro69hz5q2B'
2021-01-02,"b""RT @StockMKTNewz: AstraZeneca $AZN and the University of Oxford's COVID-19 vaccine has officially received regulatory approval for emergenc\xe2\x80\xa6"""
2021-01-02,"b""RT @StockMKTNewz: AstraZeneca $AZN and the University of Oxford's COVID-19 vaccine has officially received regulatory approval for emergenc\xe2\x80\xa6"""
2021-01-02,"b""AstraZeneca $AZN and the University of Oxford's COVID-19 vaccine has officially received regulatory approval for emergency use in India according to the WSJ"""
2021-01-02,"b'So for the $AZN vaccine, we already have:\n\n#halfdosegate\n#dosingintervalgate and\n#mixandmatchgate\n\nBefore a single dose has been administered outside a clinical trial setting.\n\nUK draws up plans to mix coronavirus vaccines  - https://t.co/0t94f8TxpN via @FT'"
2021-01-02,"b'Israel probably will be the firsr country to fully vaccinate its citizens . Who will be 2nd ? India could be a model for all though with $azn , they have experience in multiple mass vaccinations #2021goals'"
2021-01-02,b'RT @RapidTrading: $AZN AstraZeneca expects to supply two million doses of COVID-19 vaccine every week in UK -The Times | Article [AMP] | Re\xe2\x80\xa6'
2021-01-02,b'The Best Penny Stock App #pennystock\n$RBGLY\n$FDX\n$GC=F\n$GBTC\n$JDSPY\n$FCG.NZ\n$DIS\n$AZN\nhttps://t.co/yCoYfkBfR3 https://t.co/oRiCakIhXg'
2021-01-02,b'RT @Dwill2win2: PreMarket Predictions for\n$AZN &amp; $OCGN ?? Beautiful thing is India will be buying (I think) a entire day before the US..'
2021-01-02,b'PreMarket Predictions for\n$AZN &amp; $OCGN ?? Beautiful thing is India will be buying (I think) a entire day before the US..'
2021-01-02,b'RT @Dwill2win2: So I guess $ocgn isn\xe2\x80\x99t the only COVID stock to rally PM Monday $azn https://t.co/4wJjcmp1Qw'
2021-01-02,b'So I guess $ocgn isn\xe2\x80\x99t the only COVID stock to rally PM Monday $azn https://t.co/4wJjcmp1Qw'
2021-01-02,b'RT @jq1234t: 1Q21 Catalysts:\n\n$AGIO Mitapivat Transfusion Dependent PKD ph3\n$BMRN Valrox Hemophilia A ph3\n$BMY Relatlimab(anti-LAG3) 1L Mel\xe2\x80\xa6'
2021-01-02,b'UK government grants AstraZeneca\xe2\x80\x99s COVID-19 #vaccine emergency authorization. AstraZeneca will supply the UK with up to 100 million doses. $AZN\n\nhttps://t.co/rwDhSN55jK'
2021-01-02,b'Some 300 million people in India are set to get the vaccine made by AstraZeneca and Oxford University. What Ha.. $AZN $MRNA $PFE $BNTX https://t.co/B8Lqje49Sh'
2021-01-02,b'India Approves Its First Emergency-Use COVID-19 Vaccine\n\nRelated Tickers: $AZN $BNTX $MRNA $PFE\nRead more at: https://t.co/D0grE5zbqP'
2021-01-02,"b""India's drugs experts approve AstraZeneca, local COVID vaccines $AZN $PFE https://t.co/w6Oxq44W5h"""
2021-01-02,b'India Approves Its First Emergency-Use COVID-19 Vaccine $AZN $MRNA $PFE $BNTX https://t.co/B8Lqje49Sh'
2021-01-02,"b""UPDATE 4-India's drugs experts approve AstraZeneca, local COVID vaccines $AZN $PFE https://t.co/5Yx3pTp0L5"""
2021-01-02,"b""Experts at India's Drug Regulator Recommends EUA for Astrazeneca/Oxford Vaccine, One More Locally Developed by Bharat Biotech\n\nRelated Tickers: $AZN $OXBDF\nRead more at: https://t.co/mKkHMpaGfx"""
2021-01-02,"b""UPDATE 3-India approves AstraZeneca's COVID-19 vaccine, another to follow $AZN $PFE https://t.co/KUcdkCuhbv"""
2021-01-02,b'Create watchlist to track major constituents of #Nasdaq 100 $RDS $BP $AZN https://t.co/aT2aUz8Ka2 https://t.co/IKmQhijZzA'
2021-01-02,b'4 Reasons to Buy AstraZeneca Stock Now $AZN https://t.co/Ykkk89RFWa $SPY'
2021-01-02,b'$AZN AstraZeneca receives emergency use nod for coronavirus vaccine in India. $PFE  https://t.co/0QBc3OBPBg'
2021-01-02,b'Get tweets in 1 watchlist for Social Media stocks $RDS $BP $AZN https://t.co/OuxH4yq3Yq https://t.co/x3CWwLjcok'
2021-01-02,"b""UPDATE 1-India approves AstraZeneca's COVID-19 vaccine $AZN https://t.co/4OHQupv5tx"""
2021-01-02,b'DRUGMAKER ASTRAZENECA SAYS IT WILL BOOST PRODUCTION OF ITS CORONAVIRUS VACCINE TO TWO MILLION DOSES A WEEK BY THE MIDDLE OF JANUARY. $AZN\n\nTHE UK GOVERNMENT HAS GIVEN ITS APPROVAL TO THE VACCINE AND HAD INITIALLY ORDERED 100 MILLION DOSES.'
2021-01-02,"b""India approves AstraZeneca coronavirus vaccine, country's first $AZN https://t.co/uBJbBZ2SVV"""
2021-01-02,b'RT @pharmalot: Indian regulators are urged to release trial protocol for the Serum Institute Covid-19 vaccine... BUT.. you can read the pro\xe2\x80\xa6'
2021-01-02,b'India prepares for vast Covid vaccination push ahead of AstraZeneca-Oxford jab approval https://t.co/Tlj2dGvWAQ $AZN'
2021-01-02,b'RT @pharmalot: Indian regulators are urged to release trial protocol for the Serum Institute Covid-19 vaccine... BUT.. you can read the pro\xe2\x80\xa6'
2021-01-02,b'RT @pharmalot: Indian regulators are urged to release trial protocol for the Serum Institute Covid-19 vaccine... BUT.. you can read the pro\xe2\x80\xa6'
2021-01-02,b'short % to float of $ABBV is 0.48 at 2019-05-31 https://t.co/Ou6PdPtZzR $GSK 0.23% $AZN 0.48%'
2021-01-02,"b'@gwestr Isn\xe2\x80\x99t the AstraZeneca / Oxford shot going to be a traditional dead/weak virus vax?\nThat\xe2\x80\x99s the one I want, I think.\n $AZN'"
2021-01-02,"b'Because of the mutant strain, we should try the quarter-dose method and vaccinate 8X the people. $PFE $MRNA $AZN'"
2021-01-02,b'$AZN this is best #vaccine given there is no temperate need like $PFE 2nd best is #MRNA \nhttps://t.co/8OS7qCP4qT'
2021-01-02,b'RT @StockMKTNewz: AstraZeneca $AZN and Oxford are reportedly planning to distribute around 2M doses per week of their COVID-19 vaccine to t\xe2\x80\xa6'
2021-01-02,b'RT @jq1234t: 1Q21 Catalysts:\n\n$AGIO Mitapivat Transfusion Dependent PKD ph3\n$BMRN Valrox Hemophilia A ph3\n$BMY Relatlimab(anti-LAG3) 1L Mel\xe2\x80\xa6'
2021-01-02,"b'RT @AIBiotechnology: Covid19 Global Cases\n83,917,606\n\nU.S. #covid infection EXPLODES over 20 Million \n\nCovid19 FDA Approved Vaccine for Eme\xe2\x80\xa6'"
2021-01-02,b'RT @pharmalot: Indian regulators are urged to release trial protocol for the Serum Institute Covid-19 vaccine... BUT.. you can read the pro\xe2\x80\xa6'
2021-01-02,b'RT @StockMKTNewz: AstraZeneca $AZN and Oxford are reportedly planning to distribute around 2M doses per week of their COVID-19 vaccine to t\xe2\x80\xa6'
2021-01-02,b'AstraZeneca $AZN and Oxford are reportedly planning to distribute around 2M doses per week of their COVID-19 vaccine to the U.K starting in mid-January according to the Times'
2021-01-02,b'RT @jq1234t: 1Q21 Catalysts:\n\n$AGIO Mitapivat Transfusion Dependent PKD ph3\n$BMRN Valrox Hemophilia A ph3\n$BMY Relatlimab(anti-LAG3) 1L Mel\xe2\x80\xa6'
2021-01-02,b'$AZN AstraZeneca expects to supply two million doses of COVID-19 vaccine every week in UK -The Times | Article [AMP] | Reuters https://t.co/Bap4nUZ0qx'
2021-01-02,b'AstraZeneca to supply 2M doses of COVID-19 vaccine every week in the U.K. \xe2\x80\x93 The Times $AZN $PFE $BNTX $MRNA https://t.co/Y2jr9l8rTE'
2021-01-02,b'RT @1momzer: @portefeuillefun The Vaccine from $AZN is reportedly the cheesesteaks as they give it out at cost.'
2021-01-02,"b'Covid19 Global Cases\n83,917,606\n\nU.S. #covid infection EXPLODES over 20 Million \n\nCovid19 FDA Approved Vaccine for Emergency @ $PFE Pfizer - THANK GOD! \n\nhttps://t.co/Lt8VWK3XMB  $JNJ $NVS $MRK $ABT $AMGN $ABBV $AZN $LLY $GSK $SYK $SNY $ZTS $TAK $VRTX $BIIB $TEVA $ILMN $REGN'"
2021-01-02,b'@portefeuillefun The Vaccine from $AZN is reportedly the cheesesteaks as they give it out at cost.'
2021-01-02,"b'$AZN Sentiment is highly favorable right now.\nNews mentions: positive (23), negative (0), neutral (3)\nOur Sentiment Score: +1.442 (scale of -1.5 to +1.5)\nStock alerts, news, and research tools at https://t.co/Qkw92RLxV8\n#daytrading #stocks'"
2021-01-01,b'RT @jq1234t: 1Q21 Catalysts:\n\n$AGIO Mitapivat Transfusion Dependent PKD ph3\n$BMRN Valrox Hemophilia A ph3\n$BMY Relatlimab(anti-LAG3) 1L Mel\xe2\x80\xa6'
2021-01-01,b'AstraZeneca Expects to Supply 2M Doses of COVID-19 Vaccine Every Week in UK\n\nRelated Tickers: $AZN $OXBDF\nRead more at: https://t.co/lkVpK6vjig'
2021-01-01,b'AstraZeneca Expects to Supply 2M Doses of COVID-19 Vaccine Every Week in UK: @thetimes\n$AZN $OXBDF'
2021-01-01,b'$AZN 300M doses ready ? https://t.co/HVXbhmgOtd'
2021-01-01,b'Pfizer Criticizes Sudden Change in Coronavirus Vaccine Dosing Regime in the U.K. @themotleyfool #stocks $PFE $AZN $BNTX https://t.co/JbxnkATJ4a #Pharma'
2021-01-01,b'$AZN gets approval in #india after #UnitedKingdom https://t.co/jNEK1BGAur'
2021-01-01,b'RT @jq1234t: 1Q21 Catalysts:\n\n$AGIO Mitapivat Transfusion Dependent PKD ph3\n$BMRN Valrox Hemophilia A ph3\n$BMY Relatlimab(anti-LAG3) 1L Mel\xe2\x80\xa6'
2021-01-01,b'@andrew_croxford @andrew_croxford though they both use spike the actual sequences are deferent. $AZN used a sequence close to the wild type vs. $PFE $BNTX'
2021-01-01,b'RT @jq1234t: 1Q21 Catalysts:\n\n$AGIO Mitapivat Transfusion Dependent PKD ph3\n$BMRN Valrox Hemophilia A ph3\n$BMY Relatlimab(anti-LAG3) 1L Mel\xe2\x80\xa6'
2021-01-01,b'1Q21 Catalysts:\n\n$AGIO Mitapivat Transfusion Dependent PKD ph3\n$BMRN Valrox Hemophilia A ph3\n$BMY Relatlimab(anti-LAG3) 1L Melanoma ph3\n$NVS Iptacopan(Factor B) IgAN ph2\n$SRPT SRP-9001 DMD ph2\n$SNDX-5613 MLL-r/NPM1 AML ph1\n\nCovid-19 Vaccine:\n$AZN US ph3\n$JNJ US ph3\n$NVAX UK ph3 https://t.co/GvakdEQgNI'
2021-01-01,b'Pfizer Criticizes Sudden Change in Coronavirus Vaccine Dosing Regime in the U.K. @themotleyfool #stocks $PFE $AZN $BNTX https://t.co/ID3Mf7Z5MJ'
2021-01-01,b'Exactly why bickering over $AZN dosing structure makes no sense. No time to satisfy someones intellectual curiosity about which hypothesis is proven.  House is burning.Give a first vaccine dose to as many as possible. https://t.co/0em9Aygafb'
2021-01-01,b'phase 3 trials. As usual they will be wrong. Just to get over with another needless discussion right away :)\n\n$AZN $BNTX $PFE $MRNA #AstraZeneca #BioNTech #Pfizer #SARSCoV2 #COVID19 #coronavirus #vaccines'
2021-01-01,b'RT @pharmalot: Indian regulators are urged to release trial protocol for the Serum Institute Covid-19 vaccine... BUT.. you can read the pro\xe2\x80\xa6'
2021-01-01,b'RT @pharmalot: Indian regulators are urged to release trial protocol for the Serum Institute Covid-19 vaccine... BUT.. you can read the pro\xe2\x80\xa6'
2021-01-01,b'RT @pharmalot: Indian regulators are urged to release trial protocol for the Serum Institute Covid-19 vaccine... BUT.. you can read the pro\xe2\x80\xa6'
2021-01-01,b'Looks like other countries will rely on #india soon to get #covid vaccine. One of the largest manufacturing facility (2.5 billion doses a year) and one of the most stable vaccine. $AZN. Largest vaccine program starts in India soon and i believe it will be successful.'
2021-01-01,b'RT @pharmalot: Indian regulators are urged to release trial protocol for the Serum Institute Covid-19 vaccine... BUT.. you can read the pro\xe2\x80\xa6'
2021-01-01,b'Get tweets in 1 watchlist for Social Media stocks $RDS $BP $AZN https://t.co/OuxH4yq3Yq https://t.co/8rqTx4RNkK'
2021-01-01,b'Pfizer Criticizes Sudden Change in Coronavirus Vaccine Dosing Regime in the U.K. @themotleyfool #stocks $PFE $AZN $BNTX https://t.co/kOheLxrvlR'
2021-01-01,"b'RT @scripvibha: As expected, Oxford/AZ Indian partner Serum Institute gets accelerated approval for COVID-19 vaccine from expert committee.\xe2\x80\xa6'"
2021-01-01,b'RT @buysidebio: $VINC CEO of Acerta (sold for $7B) is back and has super potent CDK9 from Bayer that is showing CRs in double-hit DLBCL. Ta\xe2\x80\xa6'
2021-01-01,"b'RT @scripvibha: As expected, Oxford/AZ Indian partner Serum Institute gets accelerated approval for COVID-19 vaccine from expert committee.\xe2\x80\xa6'"
2021-01-01,"b""RT @gianni_dipoce: 2 DAYS LEFT - Use coupon code 'MERCATOR' for $40 off annual subscriptions.\n\nNew Letter to be published Sunday, 1/3.\n\n$ts\xe2\x80\xa6"""
2021-01-01,"b""RT @gianni_dipoce: 2 DAYS LEFT - Use coupon code 'MERCATOR' for $40 off annual subscriptions.\n\nNew Letter to be published Sunday, 1/3.\n\n$ts\xe2\x80\xa6"""
2021-01-01,b'RT @pharmalot: Indian regulators are urged to release trial protocol for the Serum Institute Covid-19 vaccine... BUT.. you can read the pro\xe2\x80\xa6'
2021-01-01,b'RT @pharmalot: Indian regulators are urged to release trial protocol for the Serum Institute Covid-19 vaccine... BUT.. you can read the pro\xe2\x80\xa6'
2021-01-01,b'RT @pharmalot: Indian regulators are urged to release trial protocol for the Serum Institute Covid-19 vaccine... BUT.. you can read the pro\xe2\x80\xa6'
2021-01-01,"b""India drug regulator approves AstraZeneca COVID vaccine, country's first - sources $AZN #Vaccine #Covid19  https://t.co/29IEqCi1Kf"""
2021-01-01,b'RT @SamFazeli8: This is such an elegant study. Anybody wondering about high antibody titres and hospitalised Covid-19 patients should read\xe2\x80\xa6'
2021-01-01,"b'This is such an elegant study. Anybody wondering about high antibody titres and hospitalised Covid-19 patients should read this. Would be great to see what $PFE $BNTX and $MRNA vaccines do vs $NVAX, $AZN and $JNJ. https://t.co/Q9jwPoofXM'"
2021-01-01,b'RT @newsfilterio: Israel leads world in COVID vaccinations per capita $CVS $WBA $PFE $MRNA $AZN https://t.co/qd3rSzjm9P'
2021-01-01,"b""RT @Shabeten: @MikeGal041 @segal_eran You're probably right. But anyway, Israel will be with at least 2m vaccinated by the end of March. \n$\xe2\x80\xa6"""
2021-01-01,"b""@MikeGal041 @segal_eran You're probably right. But anyway, Israel will be with at least 2m vaccinated by the end of March. \n$PFE and $MRNA vaccines will arrive right after, with $AZN in May (let's say) - together with the firepower of ~150k vaccine per day, Israel will cover the population by Aug."""
2021-01-01,"b""India drug regulator approves AstraZeneca COVID vaccine, country's first - sources $AZN $PFE $BNTX $CELH https://t.co/9lBN5vKksC"""
2021-01-01,b'Israel leads world in COVID vaccinations per capita $CVS $WBA $PFE $MRNA $AZN https://t.co/qd3rSzjm9P'
2021-01-01,"b'$AZN Sentiment is highly favorable right now.\nNews mentions: positive (23), negative (0), neutral (2)\nOur Sentiment Score: +1.46 (scale of -1.5 to +1.5)\nStock alerts, news, and research tools at https://t.co/Qkw92RLxV8\n#daytrading #stocks'"
2021-01-01,"b""#India drug regulator approves AstraZeneca #COVID #vaccine, country's first - sources $AZN https://t.co/Ch6q0yAUNi"""
2021-01-01,"b'RT @scripvibha: As expected, Oxford/AZ Indian partner Serum Institute gets accelerated approval for COVID-19 vaccine from expert committee.\xe2\x80\xa6'"
2021-01-01,"b'RT @scripvibha: As expected, Oxford/AZ Indian partner Serum Institute gets accelerated approval for COVID-19 vaccine from expert committee.\xe2\x80\xa6'"
2021-01-01,b'RT @pharmalot: Indian regulators are urged to release trial protocol for the Serum Institute Covid-19 vaccine... BUT.. you can read the pro\xe2\x80\xa6'
2021-01-01,"b'As expected, Oxford/AZ Indian partner Serum Institute gets accelerated approval for COVID-19 vaccine from expert committee. Conditions for nod not clear yet, regulator DCGI needs to approve now #COVID19 #oxfordvaccine #health $AZN'"
2021-01-01,"b""UPDATE 2-India drug regulator approves AstraZeneca COVID vaccine, country's first - sources $AZN $PFE https://t.co/x4iHkPF5TR"""
2021-01-01,"b'RT @PredatorDiaries: I doubt that real regulators (@US_FDA &amp; @EMA_News, not @MHRAgovuk) will approve the $AZN/Oxford vaccine without clinic\xe2\x80\xa6'"
2021-01-01,"b'RT @PredatorDiaries: @sandyddouglas Do you even know that clinical trials are conducted to protocols? Protocol violations, like those in th\xe2\x80\xa6'"
2021-01-01,"b'RT @PredatorDiaries: Not only is the dosing schedule for both vaccines made up, &amp; not based on the clinical trial protocols, the $AZN #half\xe2\x80\xa6'"
2021-01-01,b'Indian regulators are urged to release trial protocol for the Serum Institute Covid-19 vaccine... BUT.. you can read the protocol here.. we have a copy.. https://t.co/zdHKTt6X7C #pharma #COVID19 #vaccine #coronavirus #pandemic #India $AZN $PFE $BNTX'
2021-01-01,"b""I doubt that real regulators (@US_FDA &amp; @EMA_News, not @MHRAgovuk) will approve the $AZN/Oxford vaccine without clinical trials not based on subgroup analyses and protocol violations. They're professional like that.\n\n#halfdosegate #dosingintervalgate #mixandmatchgate https://t.co/zEeGnMkRRy"""
2021-01-01,"b'@sandyddouglas Do you even know that clinical trials are conducted to protocols? Protocol violations, like those in the $AZN studies resulting in #halfdosegate &amp; #dosingintervalgate are looked upon by real regulators (not @MHRAgovuk) as potentially invalidating any efficacy conclusions?'"
2021-01-01,"b""Not only is the dosing schedule for both vaccines made up, &amp; not based on the clinical trial protocols, the $AZN #halfdosegate protocol violations, but they want to mix &amp; match different vaccines? Aren't the  @MHRAgovuk supposed to protect the public from non-evidence-based stuff https://t.co/dTRgKBsHKE"""
2021-01-01,b'AstraZeneca COVID vaccine set to become first one approved in India - sources https://t.co/qn3kVXWhhJ \n\n$AZN\n\n#astrazeneca #finanstwitter #azn #pratapengar #aktier'
2021-01-01,b'Indian shares kick off 2021 with record closing highs $AZN $F https://t.co/NQJgoGuWnC'
2021-01-01,b'UPDATE 1-AstraZeneca COVID vaccine set to become first one approved in India -sources $AZN $PFE $BNTX https://t.co/yXGWKGPevU'
2021-01-01,b'AstraZeneca vaccine set to become first to get approval in India-sources $AZN $PFE $BNTX https://t.co/bhCPMgsUCo'
2021-01-01,b'BioNTech founders warn of vaccine supply gaps - Spiegel $BNTX $PFE $MRNA $AZN https://t.co/Q3sdURNvRj'
2021-01-01,b'#Oxford #COVID #Vaccine Authorized In The #UK $AZN $PFE $MRNA https://t.co/yC5TN1GJgL'
2021-01-01,"b'RT @matthewherper: The MHRA seems to be saying that the $AZN/Oxford vaccine is more effective if the doses are spaced three months apart, n\xe2\x80\xa6'"
2021-01-01,b'Indian shares start 2021 on all-time high; IT rises $AAMC $AZN $F https://t.co/d4ETlAxxM8'
2021-01-01,b'Pfizer Criticizes Sudden Change in Coronavirus Vaccine Dosing Regime in the U.K. @themotleyfool #stocks $PFE $AZN $BNTX https://t.co/mXVlhWFiGR'
2021-01-01,b'$adil $mrna $pfe $azn Year 2020 \xf0\x9f\x9a\xa8most hated and negative word was  \xf0\x9f\xa6\xa0 POSITIVE   \xf0\x9f\xa6\xa0'
2021-01-01,b'Indian shares kick off 2021 with gains; IT stocks rise $AZN $F https://t.co/2iPlTUhh18'
2021-01-01,b'RT @GonaloPedroNun1: Current risk in portfolio: $OPES $WIMI $ZIOP $AZN $BLPH $GILD $XOM $SHIP $WDIG $MARA $SRNE $BLCM $LKNCY $GALP $FSR $BI\xe2\x80\xa6'
2021-01-01,b'Good Picks: $MRNA $MARA $TSLA $NOVN $BNGO $FSR\n\nBad Picks: $KTOV $JCPNQ $XSPA $BOXL\n\nFrustrating Stocks (Not moving even after amazing work): $AZN $PFE $XSPA\n\nExcited for in 2021: $MRNA $GHIV $IPOC $LGVW $BNGO $NIO $FSR $IDEX $SE $SQ'
2021-01-01,b'Short sale volume(not short interest) for $PTN on 2020-12-31 is 52%. https://t.co/6Ju8uV6LqR $AZN 39% $JNJ 40% $ANIP 29% $LGND 65%'
2021-01-01,"b""Current risk in portfolio: $OPES $WIMI $ZIOP $AZN $BLPH $GILD $XOM $SHIP $WDIG $MARA $SRNE $BLCM $LKNCY $GALP $FSR $BIIB $HOFV $SYBX always maintain small positions (10% or less) and hedge with uncorrelated securities (risk-free secondary portfolios; LTB's and/or Corp Premium)"""
2021-01-01,"b'of 4 weeks, but that would have invariably extended the period between ""first patient dosed"" and ""target number of events reached"". So there was an obvious incentive to keep that period as short as reasonably possible.\n\n$AZN $BNTX $PFE #SARSCoV2 #COVID19 #coronavirus #vaccines'"
2021-01-01,"b'$MRNA $PFE $AZN $GILD vaccine trade of 2020\n\nshort the pop, repeat\n\nalso $GILD lol wtf https://t.co/88AlRLbV7L'"
2021-01-01,b'The Nikkei Nears a High. Is That Good News or Bad News for Japan? $AZN $PFE $BABA $TPCO $INTC https://t.co/n53ftSmYPx'
2020-12-31,"b""The Peer-Reviewed Report on #Moderna #COVID19 #vaccine\n\nPreliminary results from a Phase 3 clinical trial of Moderna's mRNA-1273 vaccine are reported in the New England Journal of Medicine.\n\n$MRNA $PFE $BNTX $JNJ $NVAX $AZN https://t.co/DA7XoaQ7Lx"""
2020-12-31,b'RT @TopStockTips1: $INO green today i think we see funding news from US DOD and CEPI shortly. \n\n$MRNA $NVAX $GILD $PFE $MRK $AZN $JNJ $SRNE\xe2\x80\xa6'
2020-12-31,b'Weeks Away From #SpringBreak #SpringBreakers #Robinhood..... #Florida #Miami #SouthBeach \n\nPatience $PFE $MRNA $JNJ $AZN $DVAX #Sinovac #Vaccine \n\nhttps://t.co/bIqhVtq1YT'
2020-12-31,"b""RT @CNBCJulianna: What should we think about the UK's new 'one-dose' strategy?\n\nFor $AZN's vaccine, overall efficacy was 70%. Efficacy was\xe2\x80\xa6"""
2020-12-31,b'COVID-19 vaccine makers: Looking back on 2020 seeking insights for 2021 $IBB $MRNA $BNTX $PFE $AZN https://t.co/QUWQ8lJmTA'
2020-12-31,b'Shopify has underperformed the market by 13% over the past 9 days. $SHOP market cap is now roughly the size of AstraZeneca $AZN'
2020-12-31,"b'@walidgellad @ScottGottliebMD Yes, the UK is leading the way with a 12 week window between doses and approval of the controversial $AZN vaccine.'"
2020-12-31,"b'@sharkbiotech Moncef Sloui just guided to EUA for $Azn being April.  That\xe2\x80\x99s disappointing as it originally was February.  Worries me that there won\xe2\x80\x99t be enough for general public until summer, even with $JNJ supply.'"
2020-12-31,b'$AZN Above Avg Volume\nDaily appearances since 2010: 106\nClose 5 days later \xc2\xb1:\nAvg: -0.08\nSD: 1.63\nWorst: -5.30\nBest: 6.04\n\n10 days later:\nAvg: -0.25\nSD: 1.90\nWorst: -5.32\nBest: 6.13\n\n30 days later:\nAvg: 0.19\nSD: 2.47\nWorst: -5.41\nBest: 9.20'
2020-12-31,"b'Large Print $AZN Size: 434058 Price: 49.99 Time: 1600 Amount: $21,698,559.42'"
2020-12-31,"b'I would say this tweet aged well, but for the part where I should have said more forthrightly, ""Ain\'t gonna happen.""\n\nHere\'s to a more immune 2021. $PFE $BNTX $MRNA $AZN https://t.co/Z5JkeM0t3e'"
2020-12-31,b'Just one 2021 prediction from me: $AZN Pascal Soriot will be knighted.'
2020-12-31,b'RT @RobertLKruse: The vaccine is not very good toward preventing mild infection. That much is clear and has been the focus of the majority\xe2\x80\xa6'
2020-12-31,b'RT @sharkbiotech: We should be getting $JNJ phase 3 $AZN US phase 3 and $NVAX phase 2b #COVID19 vaccine data all in next 2-3 weeks maybe so\xe2\x80\xa6'
2020-12-31,b'RT @sharkbiotech: We should be getting $JNJ phase 3 $AZN US phase 3 and $NVAX phase 2b #COVID19 vaccine data all in next 2-3 weeks maybe so\xe2\x80\xa6'
2020-12-31,b'RT @sharkbiotech: We should be getting $JNJ phase 3 $AZN US phase 3 and $NVAX phase 2b #COVID19 vaccine data all in next 2-3 weeks maybe so\xe2\x80\xa6'
2020-12-31,b'RT @sharkbiotech: We should be getting $JNJ phase 3 $AZN US phase 3 and $NVAX phase 2b #COVID19 vaccine data all in next 2-3 weeks maybe so\xe2\x80\xa6'
2020-12-31,b'RT @sharkbiotech: We should be getting $JNJ phase 3 $AZN US phase 3 and $NVAX phase 2b #COVID19 vaccine data all in next 2-3 weeks maybe so\xe2\x80\xa6'
2020-12-31,b'RT @sharkbiotech: We should be getting $JNJ phase 3 $AZN US phase 3 and $NVAX phase 2b #COVID19 vaccine data all in next 2-3 weeks maybe so\xe2\x80\xa6'
2020-12-31,b'RT @sharkbiotech: We should be getting $JNJ phase 3 $AZN US phase 3 and $NVAX phase 2b #COVID19 vaccine data all in next 2-3 weeks maybe so\xe2\x80\xa6'
2020-12-31,b'We should be getting $JNJ phase 3 $AZN US phase 3 and $NVAX phase 2b #COVID19 vaccine data all in next 2-3 weeks maybe something as soon as Monday\nhas implications for back to work stocks and $MRNA $BNTX  of course'
2020-12-31,b'The Best Penny Stock App #pennystock\n$RBGLY\n$FDX\n$GC=F\n$GBTC\n$JDSPY\n$FCG.NZ\n$DIS\n$AZN\nhttps://t.co/yCoYfkBfR3 https://t.co/gGEftbAKtI'
2020-12-31,b'RT @dfwbiotechguy: @buysidebio $vinc $lsac have similar Cdk drug to $cycc. If $cycc went directly to Aml NHL they probably would have bette\xe2\x80\xa6'
2020-12-31,b'3 Best Coronavirus Vaccine Stocks to Buy Right Now @themotleyfool #stocks $PFE $JNJ $AZN $BNTX $MYL https://t.co/BHnNryJo8i'
2020-12-31,"b'RT @AlphaTrader00: 3 weeks ago $AZN bought out $ALXN, for $39bn or $175 per share\n\nAlexion Pharmaceuticals has a 2nd-generation C5 mAb call\xe2\x80\xa6'"
2020-12-31,"b'@buysidebio $vinc $lsac have similar Cdk drug to $cycc. If $cycc went directly to Aml NHL they probably would have better data. New CMO should fix that. And yeah MCL-1 has been hot ( $azn , $amgn, servier) and good follow up to BCL-2'"
2020-12-31,b'@tcooke27 The vaccine stocks have experienced a lot of volatility.  They need repeated doses of good news to keep their momentum.  No news from $NVAX phase 3 and $VXRT phase 1 is bad news for the market used to daily news.  Compare the coverage they get with $AZN Oxford.'
2020-12-31,"b""RT @InvestorVenture: $APT\nI Haven't BEEN MORE CONFIDENT on any other Play!\n\n$AHPI $LAKE $OPK $KODK $BVXV $CODX $ALT $EARS $ADMA $IBIO $ABT\xe2\x80\xa6"""
2020-12-31,b'RT @buysidebio: $VINC CEO of Acerta (sold for $7B) is back and has super potent CDK9 from Bayer that is showing CRs in double-hit DLBCL. Ta\xe2\x80\xa6'
2020-12-31,b'#Astrazeneca is a major supplier of #COVIDvaccine. Will all this engagement promote the stock price to the new highs?  Read: \nhttps://t.co/zNQe47Zc8H #Elliottwave #stocks #bourse #ftse100 #ftse $AZN #AZN #covid19'
2020-12-31,"b'$VINC CEO of Acerta (sold for $7B) is back and has super potent CDK9 from Bayer that is showing CRs in double-hit DLBCL. Target is really starting to heat up with $AZN showing further activity. Also, has a Bioconjugation ADC platform that is super interesting.'"
2020-12-31,"b'tested? They, as a group, might carry important information on vaccine efficacy before dose #2. Much cheaper and quicker than a new trial :) $AZN $BNTX $PFE $MRNA'"
2020-12-31,"b'RT @AlphaTrader00: 3 weeks ago $AZN bought out $ALXN, for $39bn or $175 per share\n\nAlexion Pharmaceuticals has a 2nd-generation C5 mAb call\xe2\x80\xa6'"
2020-12-31,"b""3 weeks ago $AZN bought out $ALXN, for $39bn or $175 per share\n\nAlexion Pharmaceuticals has a 2nd-generation C5 mAb called ravulizumab\n\nRavulizumab is 1 of 2 immunomodulators on Mayo Clinic's #COVID19 protocol \n\nThe other is $HGEN's #lenzilumab\n\ntic.toc.\nhttps://t.co/JZyDhlI8Ld"""
2020-12-31,"b""ITV'S PESTON TWEETS: (QUOTING JOINT COMMITTEE ON VACCINATION AND IMMUNISATION) COVID VACCINATION THE SECOND DOSE SHOULD BE AT 12 WEEKS NOT \xe2\x80\x9cUP TO\xe2\x80\x9d 12 WEEKS. $PFE $AZN"""
2020-12-31,"b""ITV's Peston tweets: (quoting Joint Committee on vaccination and immunisation) COVID vaccination the second dose should be at 12 weeks not \xe2\x80\x9cup to\xe2\x80\x9d 12 weeks. $PFE $AZN"""
2020-12-31,"b'@PredatorDiaries @jq1234t @matthewherper @BertrandBio @peterbachmd @natashaloder @Dereklowe 0% hospitalized with severe cases of covid after taking $AZN shot, regardless of dosage or age. And it costs about 4 bucks. Best bargain I\'ve seen in my life. Stating ""you get what you pay for"" is an incredible misrepresentation of the truth.'"
2020-12-31,b'RT @InvestorVenture: RT $APT READ LAST QUARTERLY REPORT!\n\nTHIS IS PRE RAMP UP!\n\nThey will have half THEIR market cap in CASH w 0 Debt in 20\xe2\x80\xa6'
2020-12-31,b'$AZN Bullish News:\nThe Oxford-AstraZeneca Vaccine Could be a Game-Changer for Inequality -- https://t.co/StDbcQTp5s DJ REALTIME NEWS 12:50 PM\n12/31/2020'
2020-12-31,"b""$APT\nI Haven't BEEN MORE CONFIDENT on any other Play!\n\n$AHPI $LAKE $OPK $KODK $BVXV $CODX $ALT $EARS $ADMA $IBIO $ABT $BNTX $AIM $BMRA $ABIO $APM $BCRX $SGBX $VBIV $VXRT $SRNE $MRNA $NVAX $INO $GILD $DVAX $QDEL $ABBV $AZN $VERU $PFE $MRK $JNJ $CRSP $SGMO $AMRN $TRVN $AAPL $AMZN https://t.co/UWT8FchOqp https://t.co/K5aWn4MVn8"""
2020-12-31,"b'@jq1234t @matthewherper @BertrandBio @peterbachmd @natashaloder @Dereklowe It is an interesting year-end paradox - the UK where the healthcare is free at the point of delivery, but if its the $AZN/Oxford vaccine, it may be half the dose or half the number of doses, and an unknown level of duration or protection.\n\nYou get what you pay for, I suppose.'"
2020-12-31,b'@Bob_Wachter First shot should be be given with a guarantee you get the second three to four weeks later. \n\nEfficacy for one short is terrible. Look at UK data on $AZN Oxford Vaccine for evidence.'
2020-12-31,b'British family doctors criticize change of plan on vaccine boosters $AZN $PFE https://t.co/dLa96j89gU'
2020-12-31,b'@semodough $AZN can sell anything and can get approval for anything'
2020-12-31,"b'I think it is possible that cross trial comps are tricky as the definition of an event used by $AZN captures some largely asymptomatic infections (in subjects prompted by a positive PCR test), which was not the case in the $PFE and $MRNA trials. https://t.co/ljGcq0sMka'"
2020-12-31,"b'RT @InfraCap: UK leading in vaccine imp. by app. of $AZN vaccine, allowing 12 weeks between doses and targeting over 50 cohort. We suspect\xe2\x80\xa6'"
2020-12-31,b'RT @RobertLKruse: The vaccine is not very good toward preventing mild infection. That much is clear and has been the focus of the majority\xe2\x80\xa6'
2020-12-31,b'AstraZeneca COVID-19 Vaccine Gets Authorization in UK $AZN $PFE $MRNA $BNTX https://t.co/jADoAdt5rd'
2020-12-31,b'RT @RobertLKruse: The messaging around the $AZN COVID-19 vaccine is fascinating. The one dose vaccine data showed that for the next 12 week\xe2\x80\xa6'
2020-12-31,b'RT @RobertLKruse: The vaccine is not very good toward preventing mild infection. That much is clear and has been the focus of the majority\xe2\x80\xa6'
2020-12-31,b'$XBI $LABU run now has been sell the news $MRNA $PFE $AZN'
2020-12-31,"b'UK leading in vaccine imp. by app. of $AZN vaccine, allowing 12 weeks between doses and targeting over 50 cohort. We suspect to see dram. declines in deaths and hosp. in UK as the approx 33% of pop. over 50, which represents 95% of deaths and 80% of hosp. , is vaccinated.#COVID19'"
2020-12-31,b'RT @RobertLKruse: The vaccine is not very good toward preventing mild infection. That much is clear and has been the focus of the majority\xe2\x80\xa6'
2020-12-31,"b'The vaccine is not very good toward preventing mild infection. That much is clear and has been the focus of the majority of the discussion around the $AZN vaccine. But if our goal is to keep ppl out of hospital, it makes sense to deploy this tool. Ppl can get better vaccine later'"
2020-12-31,"b'The messaging around the $AZN COVID-19 vaccine is fascinating. The one dose vaccine data showed that for the next 12 weeks, no patients developed severe disease &amp; ~90% reduction in hospitalization. That is laudable data to save lives in a pandemic emergency.'"
2020-12-31,"b'@3IDWarrant @IBD_AGatlin @MarkC53916729 @menosave The $azn, $Ions partnership will continue to be extremely beneficial to both as well #humankind. #science #medicine. @AstraZeneca'"
2020-12-31,b'$AZN will be in the hunt to merger with VXLLF VXL.V VAXIL BIO final test for a game changing Oral Pill Covid Vaccine that is safer and far more effective. VXL.V  stock will go past the $10.00 mark. It is up 120 % and climbing in the last 2 weeks. https://t.co/k9UI91X6c1'
2020-12-31,b'UK government grants AstraZeneca\xe2\x80\x99s COVID-19 #vaccine emergency authorization. $AZN\n\nhttps://t.co/tO13oRwLSD'
2020-12-31,b'British family doctors criticise change of plan on vaccine boosters $AZN $PFE https://t.co/Y3oDUELJ56'
2020-12-31,b'RT @TopStockTips1: $INO green today i think we see funding news from US DOD and CEPI shortly. \n\n$MRNA $NVAX $GILD $PFE $MRK $AZN $JNJ $SRNE\xe2\x80\xa6'
2020-12-31,b'It is important to note that the EMA (European Medicine Agency) has stated that Astrazeneca $AZN will not receive authorization anytime soon in January because they have not filed for approval per Reuters article. Undervalued or Overvalued ? #stock #vaccine #stockcheeser'
2020-12-31,"b'Stock Market Rally Caps Amazing 2020, AstraZeneca Vaccine, Boeing 737 Max, Alibaba, Bitcoin In Focus - https://t.co/5L6Doelnnl $BTC $AZN'"
2020-12-31,"b'RT @UncleBillyMoney: $ENZC\n\nHuge Catalysts Lined Up 2021\n\nMgmt team making GREAT moves\n\n""will significantly enhance the equity position of\xe2\x80\xa6'"
2020-12-31,"b""$azn I am hearing about an antibody treatment that's looking likely to prove highly effective in treating people recently exposed to the virus. For contact tracing this will be a game changer. For the company, they'll actually look to profit off it unlike the vaccine."""
2020-12-31,b'$INO green today i think we see funding news from US DOD and CEPI shortly. \n\n$MRNA $NVAX $GILD $PFE $MRK $AZN $JNJ $SRNE $IBIO $REGN $TMO $AMGN $KODK $CODX $BNTX'
2020-12-31,"b'Astrazeneca $AZN yesterday has received their first vaccine candidate approval for emergency use in the United Kingdom. It is also important to note so far it has the least efficiency compared to Moderna and Pfizer, however its transportation system and price range is efficient! https://t.co/M6uZeP3qUC'"
2020-12-31,b'2020: 3 biggest #buyout in this year\n\n1) $SPGI $44 billion acquisition of IHS Markit Ltd $INFO\n2) $AZN $39 billion acquisition of Alexion Pharma $ALXN \n3) $CRM $27.7 billion acquisition of Slack $WORK\n\n#MAISA owns $ALXN and $WORK'
2020-12-31,"b'@matthewherper @peterbachmd @natashaloder @Dereklowe Et tu, Brute?\n\nCome on @matthewherper, you know that the UK has made the right decision. Also see https://t.co/GcmI7v8jMs and also see https://t.co/u0a3Vm3AMw.\n\n$AZN $BNTX $CVAC $GSK $JNJ $MRNA $NVAX $PFE $SNY #SARSCoV2 #COVID19 #coronavirus #vaccines'"
2020-12-31,b'RT @AnjKhem: UK approves AstraZeneca/Oxford COVID-19 vaccine $AZN\nhttps://t.co/ccMlmOftKg via @KumuthaRam'
2020-12-31,"b'After Tumultuous Year, The Final Trading Day Of 2020 Might Be A Welcome Quiet One $AZN $MRNA $PFE $BNTX https://t.co/Pvn94XR3Ab'"
2020-12-31,"b'@IBD_AGatlin @menosave $ions will have a dozen trial updates at min, many unpartnered. $CRSP $EDIT $NTLA $ARKK $AMGN $GMAB $XNCR $MGNX $RHHBY $SGEN $GILD $IMGN $MRSN $ZYME $STRO $ARWR $PFE $BNTX $MRNA $TBIO $ARCT $ILMN $EXAS $GH $biib $azn $pfe $mrna $NTRA $arkg $alny @ARKInvest @CathieDWood @Fidelity'"
2020-12-31,"b""USA #FDA is Not Going at Warp Speed to Approve $AZN Vaccine\xf0\x9f\xa4\xa8\n\nStockpiles of the $PFE &amp; $MRNA #vaccines are growing. The US doesn't seem to be in a rush for a Tier 2 #vaccine &amp; appear to be focused on 2 other American #COVID19 vaccines from $JNJ &amp; $NVA https://t.co/BLoDSEiuXd"""
2020-12-31,"b'There is a highly unlikely deal that the #covid #vaccine shot is linked to a 91 year old #Swiss death. Probably the case, she was 91 \xf0\x9f\x92\x8e\xf0\x9f\x97\xbd\n\n$SPY $QQQ $PFE $MRNA $AZN\n\n#rudereport #violetpill #rudereporters #stimulus #Europe\n\nhttps://t.co/smwEJ6h7RC'"
2020-12-31,b'2020 healthcare major acquisitions. Here are the stocks performance post the announcements so far. $LLY and $BMY did better than $GILD and $AZN. $JNJ $XLV https://t.co/Ay89StCDC1'
2020-12-31,"b'RT @SumZero: Doctors say that the first of the two doses can take up to 10 - 15 days to generate 50% protection, advises taking precautions\xe2\x80\xa6'"
2020-12-31,b'$AZN Health Canada waiting on more data before making a decision on AstraZeneca vaccine https://t.co/ftgoM1I88O'
2020-12-31,"b""$AZN AstraZeneca vaccine likely won't be authorized in US until April https://t.co/G4ZTSBAS9n"""
2020-12-31,b'$AZN AstraZeneca and Oxford\xe2\x80\x99s Bumpy Partnership Hangs Over Covid Vaccine\xe2\x80\x99s Future - WSJ https://t.co/UGSvyfJZne'
2020-12-31,"b""EMERGING MARKETS-Mexico's peso gains, but set for worst year since 2016 $AZN https://t.co/ZZSQmUmjb9"""
2020-12-31,"b""$AZN\nMW UPDATE: U.K. now has enough vaccine 'to cover the entire population' after authorization of AstraZeneca--Oxford COVID-19 vaccine"""
2020-12-31,b'$azn 01/15/2021 52.5 calls on flow'
2020-12-31,"b'RT @UncleBillyMoney: $ENZC\n\nHuge Catalysts Lined Up 2021\n\nMgmt team making GREAT moves\n\n""will significantly enhance the equity position of\xe2\x80\xa6'"
2020-12-31,"b'Doctors say that the first of the two doses can take up to 10 - 15 days to generate 50% protection, advises taking precautions even after vaccination. $MRNA $PFE $AZN \n\nNurse gets COVID-19 after 1st vaccine shot, doctors weigh in |ABC7 https://t.co/d9rxjnScST via @YouTube'"
2020-12-31,b'and by being the first to change the vaccination protocols (second dose later. Possibly MUCH later). \n\n$AZN $BNTX $PFE $MRNA #SARSCoV2 #COVID19 #coronavirus #vaccines #UK'
2020-12-31,"b""Today's Market Heatmap - December 31\n\n$AAPL +0.16%\n$AMZN -0.37%\n$MSFT +0.14%\n$TSLA +0.79%\n$BABA -0.11%\n$GOOG +0.07%\n$GOOGL +0.21%\n$DIS +0.18%\n$BA -0.28%\n$CRWD +0.10%\n$PYPL +0.02%\n$XOM -0.02%\n$AVNW -0.12%\n$AZN -0.39%\n$FB +0.17%\n$SBUX +0.10% https://t.co/VWnbHr8Fll"""
2020-12-31,"b'RT @UncleBillyMoney: $ENZC\n\nHuge Catalysts Lined Up 2021\n\nMgmt team making GREAT moves\n\n""will significantly enhance the equity position of\xe2\x80\xa6'"
2020-12-31,"b'RT @UncleBillyMoney: $ENZC\n\nHuge Catalysts Lined Up 2021\n\nMgmt team making GREAT moves\n\n""will significantly enhance the equity position of\xe2\x80\xa6'"
2021-01-07,b'MIDDAY NEWS TIME  #WORLDOFOPTIONS \n$LMND $TSLA $SNOW $JMIA $CRSP $BBBY $AAPL $TDOC $NETS $TWTR $JMIA $MMM $FDX $RUN $UPS $QS $MSTR $AZN $NIO $MRNA $KO $WFC $MGNI $VIAC $JMIA  $BAC $U $PLUG $CRWD $BA $CCL $SNAP $INTC $GOOG $FB $SHOP $VZ $DIS $SPX $SPY $DOW $NASDAQ https://t.co/iSVU05CZUX'
2021-01-07,"b'Large Print $AZN Size: 150000 Price: 50.18 Time: 1500 Amount: $7,527,000.00'"
2021-01-07,b'If Bharat / $OCGN Covivax Is more effective vs UK/SA variants than $AZN - why wouldn\xe2\x80\x99t AZN - so far rejected from US - buy $OCGN &amp; its potential US rights? https://t.co/Z5fPJMhsN2'
2021-01-07,b'.@moderna_tx CEO Claims #Covid19 Vaccine Immunity Protection Likely to Last a Couple of Years\xf0\x9f\xa4\x94\n\nPremature? So far no other #vaccine manufacturer has made claims about immunity protection duration because the data is not there.\n\n$MRNA $PFE $BNTX $AZN $JNJ\n\nhttps://t.co/ozWcbir8ye'
2021-01-07,"b'1.5 million people in #UK have received 1st vaccine dose. Chart: country comparison: #COVID #vaccines administered per 100k people. So far, #UK leads. It has 3 vaccines cleared for emergency use ($PFE, $MRNA, $AZN) vs 2 in US. @martin_lynge is helping us track. https://t.co/feNVN364dq'"
2021-01-07,b'RT @CNBCJulianna: Next up in #vaccine race: Johnson &amp; Johnson\n\nThis one uses same approach as $AZN but it could potentially only require ON\xe2\x80\xa6'
2021-01-07,"b""Brazilian Study Finds China's SinoVac #COVID19 Vaccine 78% Effective\n\nBrazil has banked its immunization rollout on #China's SinoVac #vaccine. Results of the Phase 3 study found the jab 78% effective\n\n$MRNA $PFE $JNJ $AZN #stocks #investing\n\nhttps://t.co/v1fALh5BWR"""
2021-01-07,b'English health chief says people will get COVID booster shots after guidance change $PFE $AZN https://t.co/sVQAiAtjDU'
2021-01-07,b'$ino \xf0\x9f\x9a\xa8 @ GOOD SUPPORT $9\n\n\xf0\x9f\x9a\xa8 Ph-2 Trails Success\n\n\xf0\x9f\x9a\xa8 Vaccine ino-4800 Commercial in China\n\n\xf0\x9f\x9a\xa8Institutions Loading\n\n( $gevo $azn $ibio $snap $acb $penn $novn $aapl $sunw $fsly $tsla $dkng $msft $nkla $vxrt $fb $opti $gme $pfe $pltr $wkhs $xpev $mara $fsr $spy $srne $aal $baba $m) https://t.co/mLNqwb548F'
2021-01-07,b'RT @CNBCJulianna: Next up in #vaccine race: Johnson &amp; Johnson\n\nThis one uses same approach as $AZN but it could potentially only require ON\xe2\x80\xa6'
2021-01-07,b'RT @CNBCJulianna: Next up in #vaccine race: Johnson &amp; Johnson\n\nThis one uses same approach as $AZN but it could potentially only require ON\xe2\x80\xa6'
2021-01-07,b'RT @CobraHawk69: $RDGL This could be the next big pharma buyout. FDA update by 01-16-21. $AYTU $AIM $NVAX $INO $XSPA $AIKI $SNY $SIGA $LEG\xe2\x80\xa6'
2021-01-07,b'RT @CobraHawk69: $RDGL This could be the next big pharma buyout. FDA update by 01-16-21. $AYTU $AIM $NVAX $INO $XSPA $AIKI $SNY $SIGA $LEG\xe2\x80\xa6'
2021-01-07,"b'While up 2$ per share, $FGEN still strikes us as a very attractive opportunity based on R/R.\n""Overall, we see significant upside potential with the potential approval of roxadustat in the EU and the US."" \n\nRead more in our report here:\nhttps://t.co/cp0TenaCzd\n\n$FGEN $AZN $ALPMY'"
2021-01-07,b'Get tweets in 1 watchlist for Social Media stocks $RDS $BP $AZN https://t.co/OuxH4yq3Yq https://t.co/2WmeCHS8CF'
2021-01-07,b'RT @CNBCJulianna: Next up in #vaccine race: Johnson &amp; Johnson\n\nThis one uses same approach as $AZN but it could potentially only require ON\xe2\x80\xa6'
2021-01-07,b'@Tonyy_Bull Entering slowly \n\n100% equity amount \n\n\xf0\x9f\x91\x87\n10% $BX\n10% $AZN \n10% $RTX \n\nEvery month'
2021-01-07,"b'Also \nIf you remember we bought $JPM at 91 dollars \n\nIt\xe2\x80\x99s now 136 \n\nI am selling my stock and buying $BX , $AZN and $RTX \n\n(All investments)'"
2021-01-07,b'$RDGL This could be the next big pharma buyout. FDA update by 01-16-21. $AYTU $AIM $NVAX $INO $XSPA $AIKI $SNY $SIGA $LEG $GILD $AZN $ACB $GNFT $ENZC $JNJ $GERN $ACAD $JAZZ $BLUE $KITE $AMGN $RDUS https://t.co/nyFJbXc76W'
2021-01-07,b'Moderna Has Big Plans For 2021 $PFE $MRNA $MRK $AZN $NVAX https://t.co/G3qokzoCLP'
2021-01-07,b'The Best Penny Stock App #pennystock\n$RBGLY\n$FDX\n$GC=F\n$GBTC\n$JDSPY\n$FCG.NZ\n$DIS\n$AZN\nhttps://t.co/yCoYfkBfR3 https://t.co/sJAHp9LiP4'
2021-01-07,b'RT @CNBCJulianna: Next up in #vaccine race: Johnson &amp; Johnson\n\nThis one uses same approach as $AZN but it could potentially only require ON\xe2\x80\xa6'
2021-01-07,"b'RT @EmergingGrowth1: $CYDY CytoDyn Update Reveals Q1 Sales Pipeline, Philippine EUA, NASDAQ Uplisting, &amp; High Likelihood of Approval\n\nhttps\xe2\x80\xa6'"
2021-01-07,b'RT @CNBCJulianna: Next up in #vaccine race: Johnson &amp; Johnson\n\nThis one uses same approach as $AZN but it could potentially only require ON\xe2\x80\xa6'
2021-01-07,"b""@TonyFauci2 wish i could read the article.. but I'll take your word for it... I doubt it but it could happen.. $azn is huge and right now they can't get in the USA but $ocgn owns the USA rights to Covaxin... might be a super intelligent move"""
2021-01-07,b'RT @CNBCJulianna: Next up in #vaccine race: Johnson &amp; Johnson\n\nThis one uses same approach as $AZN but it could potentially only require ON\xe2\x80\xa6'
2021-01-07,b'20 DMA Support today: $MEC $MBUU $AZN $PHI $SNPR $MFL $GNE $NSH $IGA $RA $FOUR ... https://t.co/deOpbNqdR6'
2021-01-07,b'RT @CNBCJulianna: Next up in #vaccine race: Johnson &amp; Johnson\n\nThis one uses same approach as $AZN but it could potentially only require ON\xe2\x80\xa6'
2021-01-07,b'RT @CNBCJulianna: Next up in #vaccine race: Johnson &amp; Johnson\n\nThis one uses same approach as $AZN but it could potentially only require ON\xe2\x80\xa6'
2021-01-07,b'RT @CNBCJulianna: Next up in #vaccine race: Johnson &amp; Johnson\n\nThis one uses same approach as $AZN but it could potentially only require ON\xe2\x80\xa6'
2021-01-07,b'RT @CNBCJulianna: Next up in #vaccine race: Johnson &amp; Johnson\n\nThis one uses same approach as $AZN but it could potentially only require ON\xe2\x80\xa6'
2021-01-07,b'RT @CNBCJulianna: Next up in #vaccine race: Johnson &amp; Johnson\n\nThis one uses same approach as $AZN but it could potentially only require ON\xe2\x80\xa6'
2021-01-07,"b'BWMT | Thursday, January 7, 2021 \n""Positive anything is better than negative nothing.""\n\xe2\x80\x94 Elbert Hubbard $BABA $AZN $PFE $MRNA https://t.co/y8fr3hWN0z'"
2021-01-07,b'RT @CNBCJulianna: Next up in #vaccine race: Johnson &amp; Johnson\n\nThis one uses same approach as $AZN but it could potentially only require ON\xe2\x80\xa6'
2021-01-07,"b'CTFN Analysis | @AlexionPharma/@AstraZeneca overlap in Lupus treatment assessed, by @Saniya_rao and @Tyler_Tulenko: https://t.co/NOyqVObRKi\n#antitrust #mergers #healthcare $ALXN $AZN https://t.co/5XWE9Yr9bx'"
2021-01-07,"b""RT @Biohazard3737: Clinical data from $AZN is disappointing. If $JNJ's one shot approach is also only 70% efficacious (data later this mont\xe2\x80\xa6"""
2021-01-07,b'RT @CNBCJulianna: Next up in #vaccine race: Johnson &amp; Johnson\n\nThis one uses same approach as $AZN but it could potentially only require ON\xe2\x80\xa6'
2021-01-07,"b'Large Print $AZN Size: 276159 Price: 50.49 Time: 1107 Amount: $13,943,267.91'"
2021-01-07,b'$AZN Brazil\xe2\x80\x99s Fiocruz to Apply for AstraZeneca/Oxford Vaccine Emergency Use by Friday https://t.co/QrQ1H3H9bR via @TheRioTimes'
2021-01-07,"b'$PFE $BNTX $AZN  Britain working with Pfizer, AstraZeneca to increase COVID-19 vaccine supplies https://t.co/vI2n0euTQb'"
2021-01-07,b'$AZN Morocco approves use of AstraZeneca COVID-19 vaccine https://t.co/dXYaMf0xNe'
2021-01-07,b'$AZN Kenya Says First Doses of AstraZeneca Vaccine To Come Next Month https://t.co/OvOXNhClPR'
2021-01-07,b'$AZN will buy $OCGN Covivax US rights https://t.co/gUPdsfn4wX'
2021-01-07,b'$AZN South Africa buys 1.5 million doses of AstraZeneca vaccine - ABC News via @ABC - https://t.co/ey0XYLqgKv'
2021-01-07,"b""$AZN AstraZeneca vaccine rollout in England extended to doctors' practices https://t.co/rB6ZUDiQGT"""
2021-01-07,b'@AstraZeneca shows #megamergers were still possible in 2020 https://t.co/D6jdUscKCC @evaluatepharma $AZN'
2021-01-07,b'RT @CNBCJulianna: Next up in #vaccine race: Johnson &amp; Johnson\n\nThis one uses same approach as $AZN but it could potentially only require ON\xe2\x80\xa6'
2021-01-07,"b""AstraZeneca's Farxiga scores a speedy FDA review in kidney disease\xe2\x80\x94and gets another jump on rival Jardiance! AZ's Farxiga is under consideration as a chronic kidney disease treatment! $AZN #pharma #kidney #FDA \nhttps://t.co/OS6aVbo6eW"""
2021-01-07,b'RT @CNBCJulianna: Next up in #vaccine race: Johnson &amp; Johnson\n\nThis one uses same approach as $AZN but it could potentially only require ON\xe2\x80\xa6'
2021-01-07,b'RT @CNBCJulianna: Next up in #vaccine race: Johnson &amp; Johnson\n\nThis one uses same approach as $AZN but it could potentially only require ON\xe2\x80\xa6'
2021-01-07,b'RT @CNBCJulianna: Next up in #vaccine race: Johnson &amp; Johnson\n\nThis one uses same approach as $AZN but it could potentially only require ON\xe2\x80\xa6'
2021-01-07,b'RT @CNBCJulianna: Next up in #vaccine race: Johnson &amp; Johnson\n\nThis one uses same approach as $AZN but it could potentially only require ON\xe2\x80\xa6'
2021-01-07,b'RT @CNBCJulianna: Next up in #vaccine race: Johnson &amp; Johnson\n\nThis one uses same approach as $AZN but it could potentially only require ON\xe2\x80\xa6'
2021-01-07,b'$MRNA or more likely $AZN retires World wide competition from upstart Bharat and $OCGN in US with Buyout https://t.co/XhmdzuM4xv'
2021-01-07,b'RT @CNBCJulianna: Next up in #vaccine race: Johnson &amp; Johnson\n\nThis one uses same approach as $AZN but it could potentially only require ON\xe2\x80\xa6'
2021-01-07,b'RT @CNBCJulianna: Next up in #vaccine race: Johnson &amp; Johnson\n\nThis one uses same approach as $AZN but it could potentially only require ON\xe2\x80\xa6'
2021-01-07,b'RT @CNBCJulianna: Next up in #vaccine race: Johnson &amp; Johnson\n\nThis one uses same approach as $AZN but it could potentially only require ON\xe2\x80\xa6'
2021-01-07,b'RT @CNBCJulianna: Next up in #vaccine race: Johnson &amp; Johnson\n\nThis one uses same approach as $AZN but it could potentially only require ON\xe2\x80\xa6'
2021-01-07,b'RT @CNBCJulianna: Next up in #vaccine race: Johnson &amp; Johnson\n\nThis one uses same approach as $AZN but it could potentially only require ON\xe2\x80\xa6'
2021-01-07,b'RT @CNBCJulianna: Next up in #vaccine race: Johnson &amp; Johnson\n\nThis one uses same approach as $AZN but it could potentially only require ON\xe2\x80\xa6'
2021-01-07,"b'RT @EmergingGrowth1: $CYDY CytoDyn Update Reveals Q1 Sales Pipeline, Philippine EUA, NASDAQ Uplisting, &amp; High Likelihood of Approval\n\nhttps\xe2\x80\xa6'"
2021-01-07,"b'RT @EmergingGrowth1: $CYDY CytoDyn Update Reveals Q1 Sales Pipeline, Philippine EUA, NASDAQ Uplisting, &amp; High Likelihood of Approval\n\nhttps\xe2\x80\xa6'"
2021-01-07,"b'RT @EmergingGrowth1: $CYDY CytoDyn Update Reveals Q1 Sales Pipeline, Philippine EUA, NASDAQ Uplisting, &amp; High Likelihood of Approval\n\nhttps\xe2\x80\xa6'"
2021-01-07,b'RT @CNBCJulianna: Next up in #vaccine race: Johnson &amp; Johnson\n\nThis one uses same approach as $AZN but it could potentially only require ON\xe2\x80\xa6'
2021-01-07,"b'RT @EmergingGrowth1: $CYDY CytoDyn Update Reveals Q1 Sales Pipeline, Philippine EUA, NASDAQ Uplisting, &amp; High Likelihood of Approval\n\nhttps\xe2\x80\xa6'"
2021-01-07,"b'$CYDY CytoDyn Update Reveals Q1 Sales Pipeline, Philippine EUA, NASDAQ Uplisting, &amp; High Likelihood of Approval\n\nhttps://t.co/vuSfJEwxR2\n\n$AZN $BBIO $PFE $RHHBY $CANF $EPIX $MRK $GNCA $SYBX $XYN $REGN $RGNX $BMY $LLY $ABT\n\n#CoronaVirus #Covid19 #Vaccine #HotStocks #StockMarket'"
2021-01-07,"b""*WHO IMMUNIZATION DIRECTOR O'BRIEN: IN THE PROCESS OF REVIEWING DATA FOR VACCINES FROM CHINA, ASTRAZENECA, AND OTHER VACCINES FOR POSSIBLE EMERGENCY LISTING. \n$AZN"""
2021-01-07,"b""WHO immunization director O'Brien: In the process of reviewing data for vaccines from China, AstraZeneca, and other vaccines for possible emergency listing. $AZN"""
2021-01-07,"b""WHO immunization director O'Brien: In the process of reviewing data for vaccines from China, AstraZeneca, and other vaccines for possible emergency listing. $AZN"""
2021-01-07,"b""WHO IMMUNIZATION DIRECTOR O'BRIEN SAYS IN THE PROCESS OF REVIEWING DATA FOR VACCINES FROM CHINA, ASTRAZENECA AND OTHER VACCINES FOR POSSIBLE EMERGENCY LISTING\n\n$AZN"""
2021-01-07,"b""AstraZeneca Plc and Pfizer Inc: Britain's rollout of COVID-19 vaccines is being limited by the supply of shots, and the government is working with both Pfizer and AstraZeneca to increase supplies, health minister Matt Hancock said.\n\n$AZN $PFE"""
2021-01-07,b'RT @CNBCJulianna: Next up in #vaccine race: Johnson &amp; Johnson\n\nThis one uses same approach as $AZN but it could potentially only require ON\xe2\x80\xa6'
2021-01-07,"b'Gold Price Could Go as High as $10,000 Before Economy Recovers\nhttps://t.co/VwOMtafras  $JNJ $NVS $MRK $ABT $AMGN $ABBV $AZN $LLY $GSK $SYK $SNY $ZTS $TAK $VRTX $BIIB $TEVA $ILMN $REGN $ALXN $SGEN $BMRN $GMAB $MYL  $EWJ $BBJP $DXJ $FLJP $FXY $DBJP $DFJ $JPXN $ZJPN $SCJ $FJP $DXJS'"
2021-01-07,b'Over the past week we saw positive and steady social media sentiment for Astrazeneca $AZN\n\nMore at https://t.co/IzSDz8jHnE https://t.co/pYv40vvVck'
2021-01-07,b'RT @CNBCJulianna: Next up in #vaccine race: Johnson &amp; Johnson\n\nThis one uses same approach as $AZN but it could potentially only require ON\xe2\x80\xa6'
2021-01-07,"b'$MRNA pricing justified by combination of efficacy with relative ease of logistics. Note lacklustre $AZN vaccine virtually pegged at 0. Overall, vaccine pricing should not be a hot topic - any effective vaccine is worth its price tag many times over. https://t.co/aLX54rEpvm'"
2021-01-07,"b""Let's Try Making It to April 2021 First.... #Covid19 #CovidVariant #Testing #PPE #RapidTests #Vaccine $PFE $MRNA $JNJ $AZN #Oxford #Sinovac #Distribution #CVS #Walgreens #Walmart #Supermarkets #NursingHomes #Doctors #Nurses #Hospitals #Healthcare"""
2021-01-07,"b""RT @PJ_Matlock: ASTRAZENECA'S COVID-19 TRIALS MAY RESUME NEXT WEEK: FT\n$AZN  -- They also own a nice chunk of $BLU"""
2021-01-07,b'RT @CNBCJulianna: Next up in #vaccine race: Johnson &amp; Johnson\n\nThis one uses same approach as $AZN but it could potentially only require ON\xe2\x80\xa6'
2021-01-07,b'RT @CNBCJulianna: Next up in #vaccine race: Johnson &amp; Johnson\n\nThis one uses same approach as $AZN but it could potentially only require ON\xe2\x80\xa6'
2021-01-07,b'RT @CNBCJulianna: Next up in #vaccine race: Johnson &amp; Johnson\n\nThis one uses same approach as $AZN but it could potentially only require ON\xe2\x80\xa6'
2021-01-07,b'Less than a third of Filipinos open to COVID-19 jabs - survey $AZN $PFE https://t.co/6YrAElnGNT'
2021-01-07,b'RT @CNBCJulianna: Next up in #vaccine race: Johnson &amp; Johnson\n\nThis one uses same approach as $AZN but it could potentially only require ON\xe2\x80\xa6'
2021-01-07,b'RT @CNBCJulianna: Next up in #vaccine race: Johnson &amp; Johnson\n\nThis one uses same approach as $AZN but it could potentially only require ON\xe2\x80\xa6'
2021-01-07,b'RT @CNBCJulianna: Next up in #vaccine race: Johnson &amp; Johnson\n\nThis one uses same approach as $AZN but it could potentially only require ON\xe2\x80\xa6'
2021-01-07,"b'$AZN Coronavirus: UK progresses with vaccine rollout, Bayer partners with CureVac, US monitors allergic reactions https://t.co/CQiROWq83Y  #AZN #KatiePilbeamTV'"
2021-01-07,b'RT @CNBCJulianna: Next up in #vaccine race: Johnson &amp; Johnson\n\nThis one uses same approach as $AZN but it could potentially only require ON\xe2\x80\xa6'
2021-01-07,b'RT @MarketFollows: Is AstraZeneca Stock a Buy? $AZN https://t.co/ZtJlyW8p3G $SPY'
2021-01-07,"b'Next up in #vaccine race: Johnson &amp; Johnson\n\nThis one uses same approach as $AZN but it could potentially only require ONE dose which is HUGE. Phase 3 interim data due this month, paving way for Feb approvals.\n\nAt least 1 billion doses this year.\nNo profit for $JNJ.\nGame-changer.'"
2021-01-07,b'$AZN - South Africa to import 1.5M doses of the AstraZeneca vaccine https://t.co/O2KHvHtp1z'
2021-01-07,b'$AZN NEW ARTICLE : Is AstraZeneca Stock a Buy? https://t.co/SBhO5wjHfC Get all the latest $AZN related news here : https://t.co/frpOQKQUIb https://t.co/EIHI8Vaobb'
2021-01-07,b'Is AstraZeneca Stock a Buy? $AZN https://t.co/ZtJlyW8p3G $SPY'
2021-01-07,b'Kenya expects 24 mln COVID-19 vaccine doses to start arriving next month $AZN https://t.co/Ju2x5kixzV'
2021-01-07,"b'$AZN $AZNCF $BNTX NEW ARTICLE : Novavax: COVID-19 Trial Underway In The U.S., Results From The U.K. On Tap https://t.co/3R1WaFnDAY Get all the latest $AZN related news here : https://t.co/frpOQKQUIb'"
2021-01-07,b'Create watchlist to track major constituents of #Nasdaq 100 $RDS $BP $AZN https://t.co/aT2aUz8Ka2 https://t.co/0KkkaX8S63'
2021-01-07,b'short ratio interest of $BMY is 7.48 at 2019-05-31 https://t.co/T24odRtBlp $LLY 2.61 $NVS 1.90 $AZN 2.80 $JNJ 1.87'
2021-01-07,"b""EXCLUSIVE-As Olympics loom, Japanese approval of Moderna's COVID-19 vaccine unlikely till May $TAK $MRNA $NVAX $AZN $PFE https://t.co/yTLkuAIXnt"""
2021-01-07,"b'UPDATE 1-Britain working with Pfizer, AstraZeneca to increase vaccine supplies $PFE $AZN https://t.co/QChnec1Sox'"
2021-01-07,b'$NVS short interest ratio on 2019-05-31 is 1.90 https://t.co/NczwabNv8p $AZN 2.80 $BMY 7.48 $GSK 2.34 $ABT 2.79'
2021-01-07,"b""RT @JoseRicaurteJ: \xf0\x9f\x87\xaf\xf0\x9f\x87\xb5Japanese Prime Minister Yoshihide Suga's government is considering declaring a state of emergency as early as this wee\xe2\x80\xa6"""
2021-01-07,"b'Ireland sees delivery of at least 470,000 COVID-19 vaccine doses in Q1 $MRNA $AZN $JNJ https://t.co/Guw5hbCy8P'"
2021-01-07,b'Get tweets in 1 watchlist for Social Media stocks $RDS $BP $AZN https://t.co/OuxH4yq3Yq https://t.co/dMYlCgR8XG'
2021-01-07,b'2021-01-06 Short sale volume (not short interest) for $SYN is 52%. https://t.co/MtVk1FNrDj $ABT 22% $PFE 34% $AZN 36%'
2021-01-07,b'Moderna COVID-19 vaccine gets the green light in Europe $MRNA $PFE $AZN $SVA https://t.co/Okl5fpkZMY'
2021-01-07,b'WRAPUP 3-Moderna COVID-19 vaccine gets the green light in Europe $MRNA $PFE $AZN $SVA https://t.co/jZWhISlC43'
2021-01-07,"b'Moderna COVID-19 vaccine approved in Europe, Dutch play catch-up $MRNA $PFE $AZN $SVA https://t.co/iuhvD0ywwt'"
2021-01-07,"b'WRAPUP 2-Moderna COVID-19 vaccine approved in Europe, Dutch play catch-up $MRNA $PFE $AZN $SVA https://t.co/wNyWrgNRhI'"
2021-01-07,b'FARXIGA Granted Priority Review in the US for the Treatment of Patients With Chronic Kidney Disease $AZN https://t.co/HDRo0mh8sr'
2021-01-07,"b""Astra's been on my no fly list since they increased Synagis prices to the moon, nay Jupiter... but I've got to admit they're taking some interesting risks... Alexion... regenerative heart tissue work...\n\n$AZN\n\nhttps://t.co/pkYA1L1cRE"""
2021-01-07,b'RT @msmoneymoves: New FDA Priory Review PDUFA date for $AZN in May of 2021!\n\n#stocks #money #trading\n\nSee the full FDA PDUFA Calendar at ht\xe2\x80\xa6'
2021-01-07,b'New FDA Priory Review PDUFA date for $AZN in May of 2021!\n\n#stocks #money #trading\n\nSee the full FDA PDUFA Calendar at https://t.co/v3SAawIR87'
2021-01-07,b'$AZN FARXIGA Granted Priority Review in the US for the Treatment of Patients With Chronic Kidney Disease https://t.co/420mQlrCnU'
2021-01-07,b'RT @SJGulitti: $AZN \nMorocco approves AstraZeneca/Oxford COVID-19 vaccine- Minister BY Reuters \xe2\x80\x94 4:47 PM ET 01/06/2021'
2021-01-07,b'Australia says COVID-19 vaccinations likely to begin February $PFE $AZN https://t.co/XWK1K8kf3Q'
2021-01-07,b'Calls held:\n4/16\n$AZN $60 $PRTS 12.5\n$SABR 15 $SLV 30 $SNDL 1\n$STM 45 $TIGR 7.5\n$WKHS 30\n5/21\n$ELY $25 $JMIA 45\n$NNDM 7.5 $SIOX 3\n6/18\n$CCJ $15\n1/21/2022:\n$AAPL $125 $CGC 25\n$CRM 300 $DIS 230 $GM 55\n$RIDE 20 $SBUX 110\n$TSLA 1000\n(2/2)'
2021-01-07,b'$JNJ hope we can see $170 after the positive vaccine trail results in about 2 weeks. JNJ offers single shot vaccine. \xf0\x9f\x92\x89    $AZN $MRNA $PFE'
2021-01-07,b'$AZN \nMorocco approves AstraZeneca/Oxford COVID-19 vaccine- Minister BY Reuters \xe2\x80\x94 4:47 PM ET 01/06/2021'
2021-01-07,"b""RT @marketgroundhog: CDC says severe allergic reactions to the Covid vaccine run 10 times reactions to the flu shot but they're still rare\xe2\x80\xa6"""
2021-01-07,"b""CDC says severe allergic reactions to the Covid vaccine run 10 times reactions to the flu shot but they're still rare\n$PFE $MRNA $AZN $SPX $IWM\nhttps://t.co/nBLnwpaK16"""
2021-01-07,"b""$AZN AstraZeneca vaccine rollout in England extended to doctors' practices\n\nhttps://t.co/mPTdXBGOLf"""
2021-01-06,b'RT @conkers3: @MY21_Oracle @DianaEPatterson @slarratt1 @wheeliedealer @dhovekamp42 @AstraZeneca @sunsuneti1 @AstraZenecaUS @Accendo_mike @U\xe2\x80\xa6'
2021-01-06,b'$zm $fb $wmt $aapl $amzn $nflx $sbux $ino $nvda $amd $aapl $uvxy $okta $nvax $aal $docu $lazr $lmnd $lyft $sbux $msft $twtr $roku $nkla $regn $azn $idex $mrna $plug $solo $wkhs $crm $work $crwd $snow $splk $spot \n\nXM \nGet $5K Deposit bonus\noffers link https://t.co/M6G7AHXdPU https://t.co/cibeRl6s4m'
2021-01-06,b'Create watchlist to track major constituents of #Nasdaq 100 $RDS $BP $AZN https://t.co/aT2aUz8Ka2 https://t.co/DPTkGm8UGc'
2021-01-06,"b'RT @WSBConsensus: CDC spokespersons says severe allergic reactions seen in 29 vaccinations at a rate of 11 per million people, which is hig\xe2\x80\xa6'"
2021-01-06,"b'RT @RebeccaDRobbins: In OWS briefing, Moncef Slaoui just provided an update on vaccine pipeline:\n$JNJ (1-shot) vaccine on track for EUA fil\xe2\x80\xa6'"
2021-01-06,b'RT @_RyanSandhu_: A short article on why $NVAX could be the dark horse in the COVID-19 vaccine race. \n\n$MRNA $INO $PFE $JNJ $AZN $NIO $TSLA\xe2\x80\xa6'
2021-01-06,b'Get tweets in 1 watchlist for Social Media stocks $RDS $BP $AZN https://t.co/OuxH4yq3Yq https://t.co/fDLZBoIDuf'
2021-01-06,b'$AZN Above Avg Volume\nDaily appearances since 2010: 105\nClose 5 days later \xc2\xb1:\nAvg: -0.07\nSD: 1.64\nWorst: -5.30\nBest: 6.04\n\n10 days later:\nAvg: -0.24\nSD: 1.90\nWorst: -5.32\nBest: 6.13\n\n30 days later:\nAvg: 0.14\nSD: 2.50\nWorst: -5.41\nBest: 9.20'
2021-01-06,"b'$AZN Rising Price, Declining Volume\nDaily appearances since 2010: 62\nClose 5 days later \xc2\xb1:\nAvg: 0.06\nSD: 0.75\nWorst: -1.77\nBest: 1.86\n\n10 days later:\nAvg: 0.06\nSD: 1.29\nWorst: -2.46\nBest: 3.70\n\n30 days later:\nAvg: 0.33\nSD: 2.23\nWorst: -5.84\nBest: 6.11'"
2021-01-06,"b'$AZN Bullish news &amp; Buy Signal:\nPeru inks deals with Sinopharm, AstraZeneca for coronavirus vaccines -president - REUTERS 2:50 PM 1/7/2021'"
2021-01-06,"b""$AZN \nstraZeneca's FARXIGA (dapagliflozin) has been granted Priority Review in the US for the treatment of new or worsening chronic kidney disease (CKD) in adults with and without type 2 diabetes (T2D).\n\nVIE"""
2021-01-06,b'A short article on why $NVAX could be the dark horse in the COVID-19 vaccine race. \n\n$MRNA $INO $PFE $JNJ $AZN $NIO $TSLA  https://t.co/x1HikxkoNm'
2021-01-06,b'Biotech Runner in the Making: FDA Green Light Could Be Any Day Now! https://t.co/LkC53Pa35g $CVM stock is looking great today $IBB $XBI $MRNA $AZN $PFE $NIO #biotechs @CelSciCorp $QQQ $DJIA $DIA #stockmarket #investing #finance #stocks $AAPL $TSLA $AMZN $INTC $NFLX $AMD #economy'
2021-01-06,b'The Best Penny Stock App #pennystock\n$RBGLY\n$FDX\n$GC=F\n$GBTC\n$JDSPY\n$FCG.NZ\n$DIS\n$AZN\nhttps://t.co/Do6TV5md0n https://t.co/Ipaq3sM7z7'
2021-01-06,b'RT @neemodog: OWS Slaoui update 01/06: $NVAX US P3 trial has recruited 3k in 1st week (with holiday). Also notes $AZN application for EUA c\xe2\x80\xa6'
2021-01-06,b'TIMELINE-How the EU filled its basket in COVID-19 shopping spree $AZN $JNJ $PFE $BNTX $GSK https://t.co/ywTzMqNVOf'
2021-01-06,"b'UPDATE 1-Peru inks deals with Sinopharm, AstraZeneca for coronavirus vaccines -president $AZN $PFE https://t.co/xpSNbU1CiE'"
2021-01-06,b'Notable activity on social media in the past week\n\n$AZN - Up\n$IPOC - Up\n$IDEX - Up\n$GHIV - Up\n$JNJ - Up\n$BLNK - Up\n$BNGO - Up\n$XL - Up\n$RIDE - Up\n$THBR - Up'
2021-01-06,b'RT @ZigzagmanTrader: $HRAL seeks to acquire ownership in developing &amp; revenue producing companies that focus and are recognized as deliveri\xe2\x80\xa6'
2021-01-06,b'AstraZeneca\xe2\x80\x99s Farxiga nabs U.S. Priority Review for CKD $AZN https://t.co/lFcoJPgyVi'
2021-01-06,"b'$HRAL seeks to acquire ownership in developing &amp; revenue producing companies that focus and are recognized as delivering excellence in audio technology servicing both, the professional musicians and general consumer market. https://t.co/7EHbe4ne8P $VIR $CODX $LAKE $AZN $CEXPF https://t.co/3f6e3OYByL'"
2021-01-06,"b'RT @RebeccaDRobbins: In OWS briefing, Moncef Slaoui just provided an update on vaccine pipeline:\n$JNJ (1-shot) vaccine on track for EUA fil\xe2\x80\xa6'"
2021-01-06,b'RT @TonyFauci2: South African Variant makes $PFE $MRNA $AZN vaccines unimportant https://t.co/6pxMTIRxb1 and makes $OCGN  Covaxin much more\xe2\x80\xa6'
2021-01-06,b'RT @TonyFauci2: South African Variant makes $PFE $MRNA $AZN vaccines unimportant https://t.co/6pxMTIRxb1 and makes $OCGN  Covaxin much more\xe2\x80\xa6'
2021-01-06,b'South African Variant makes $PFE $MRNA $AZN vaccines unimportant https://t.co/6pxMTIRxb1 and makes $OCGN  Covaxin much more important -https://t.co/FWL4CNFQCr - date will be out within in 1 week.'
2021-01-06,"b'RT @RebeccaDRobbins: In OWS briefing, Moncef Slaoui just provided an update on vaccine pipeline:\n$JNJ (1-shot) vaccine on track for EUA fil\xe2\x80\xa6'"
2021-01-06,b'Need $AZN TO STOP BULLSHITTING'
2021-01-06,"b""#ODX #NCYT #GDR #OXB $AZN \nWe quickly need the UK vaccine.People need a choice and I'm not sure I'd accept the usa one. https://t.co/RCjNFxx7e4"""
2021-01-06,"b""RT @ZacksResearch: FDA Opposes Dilution of COVID-19 Vaccine Doses: Here's Why. $AZN $PFE $BNTX $MRNA https://t.co/gZUA06B7XO"""
2021-01-06,"b'UBS initiates a BUY \xe2\x9c\x85 for $GLW Corning Glass creators of Gorilla Glass $AAPL, Valor Glass Viles $MRNA $PFE $AZN &amp; 5G Optical Fibers $VZ $GOOG $T This category is endless. https://t.co/yGwhcZJEDP'"
2021-01-06,"b'RT @RebeccaDRobbins: In OWS briefing, Moncef Slaoui just provided an update on vaccine pipeline:\n$JNJ (1-shot) vaccine on track for EUA fil\xe2\x80\xa6'"
2021-01-06,"b'RT @RebeccaDRobbins: In OWS briefing, Moncef Slaoui just provided an update on vaccine pipeline:\n$JNJ (1-shot) vaccine on track for EUA fil\xe2\x80\xa6'"
2021-01-06,"b'RT @RebeccaDRobbins: In OWS briefing, Moncef Slaoui just provided an update on vaccine pipeline:\n$JNJ (1-shot) vaccine on track for EUA fil\xe2\x80\xa6'"
2021-01-06,"b'RT @RebeccaDRobbins: In OWS briefing, Moncef Slaoui just provided an update on vaccine pipeline:\n$JNJ (1-shot) vaccine on track for EUA fil\xe2\x80\xa6'"
2021-01-06,"b'#CDC says severe allergic reactions to #CovidVaccine run 10 times the #FluShot, but still rare https://t.co/wBxeQbt3Qn $PFE $MRNA $JNJ $AZN $BNTX $SPY $SPX $DIA $DJI $QQQ $VXX $VIIX $GLD $GDX $BAR'"
2021-01-06,"b""OWS Slaoui update 01/06: $NVAX US P3 trial has recruited 3k in 1st week (with holiday). Also notes $AZN application for EUA could be based on 'alternative strategy', not just 2 months after completion of US P3. Pertinent to $NVAX as well, post-UK P3 trial.\nhttps://t.co/rXiMRiEiD7"""
2021-01-06,"b'CDC spokespersons says severe allergic reactions seen in 29 vaccinations at a rate of 11 per million people, which is higher than the flu vaccine; all patients recovered \n\n$PFE $AZN $MRNA $BTNX'"
2021-01-06,"b'Large Print $AZN Size: 201809 Price: 50.82 Time: 1302 Amount: $10,255,933.38'"
2021-01-06,b'RT @conkers3: @MY21_Oracle @DianaEPatterson @slarratt1 @wheeliedealer @dhovekamp42 @AstraZeneca @sunsuneti1 @AstraZenecaUS @Accendo_mike @U\xe2\x80\xa6'
2021-01-06,"b'RT @RebeccaDRobbins: In OWS briefing, Moncef Slaoui just provided an update on vaccine pipeline:\n$JNJ (1-shot) vaccine on track for EUA fil\xe2\x80\xa6'"
2021-01-06,b'RT @conkers3: @MY21_Oracle @DianaEPatterson @slarratt1 @wheeliedealer @dhovekamp42 @AstraZeneca @sunsuneti1 @AstraZenecaUS @Accendo_mike @U\xe2\x80\xa6'
2021-01-06,"b'#HHS secretary recommends states open #CovidVaccinations to older #Americans, vulnerable groups  https://t.co/qgiE6DJEZa $PFE $MRNA $JNJ $AZN $BNTX $SPY $SPX $DIA $DJI $QQQ $VXX $VIIX $GLD $GDX $BAR'"
2021-01-06,"b'RT @RebeccaDRobbins: In OWS briefing, Moncef Slaoui just provided an update on vaccine pipeline:\n$JNJ (1-shot) vaccine on track for EUA fil\xe2\x80\xa6'"
2021-01-06,"b'RT @RebeccaDRobbins: In OWS briefing, Moncef Slaoui just provided an update on vaccine pipeline:\n$JNJ (1-shot) vaccine on track for EUA fil\xe2\x80\xa6'"
2021-01-06,b'RT @conkers3: @MY21_Oracle @DianaEPatterson @slarratt1 @wheeliedealer @dhovekamp42 @AstraZeneca @sunsuneti1 @AstraZenecaUS @Accendo_mike @U\xe2\x80\xa6'
2021-01-06,"b'RT @RebeccaDRobbins: In OWS briefing, Moncef Slaoui just provided an update on vaccine pipeline:\n$JNJ (1-shot) vaccine on track for EUA fil\xe2\x80\xa6'"
2021-01-06,b'RT @CobraHawk69: Congrats to $ISR shareholders! Is $RDGL next? I sure hope so. FDA update by 01-16-21. $AYTU $AIM $NVAX $INO $XSPA $AIKI $S\xe2\x80\xa6'
2021-01-06,"b'RT @RebeccaDRobbins: In OWS briefing, Moncef Slaoui just provided an update on vaccine pipeline:\n$JNJ (1-shot) vaccine on track for EUA fil\xe2\x80\xa6'"
2021-01-06,"b'RT @RebeccaDRobbins: In OWS briefing, Moncef Slaoui just provided an update on vaccine pipeline:\n$JNJ (1-shot) vaccine on track for EUA fil\xe2\x80\xa6'"
2021-01-06,"b'RT @RebeccaDRobbins: In OWS briefing, Moncef Slaoui just provided an update on vaccine pipeline:\n$JNJ (1-shot) vaccine on track for EUA fil\xe2\x80\xa6'"
2021-01-06,"b'RT @RebeccaDRobbins: In OWS briefing, Moncef Slaoui just provided an update on vaccine pipeline:\n$JNJ (1-shot) vaccine on track for EUA fil\xe2\x80\xa6'"
2021-01-06,"b'RT @RebeccaDRobbins: In OWS briefing, Moncef Slaoui just provided an update on vaccine pipeline:\n$JNJ (1-shot) vaccine on track for EUA fil\xe2\x80\xa6'"
2021-01-06,"b'RT @RebeccaDRobbins: In OWS briefing, Moncef Slaoui just provided an update on vaccine pipeline:\n$JNJ (1-shot) vaccine on track for EUA fil\xe2\x80\xa6'"
2021-01-06,"b'RT @RebeccaDRobbins: In OWS briefing, Moncef Slaoui just provided an update on vaccine pipeline:\n$JNJ (1-shot) vaccine on track for EUA fil\xe2\x80\xa6'"
2021-01-06,"b'RT @RebeccaDRobbins: In OWS briefing, Moncef Slaoui just provided an update on vaccine pipeline:\n$JNJ (1-shot) vaccine on track for EUA fil\xe2\x80\xa6'"
2021-01-06,"b'RT @RebeccaDRobbins: In OWS briefing, Moncef Slaoui just provided an update on vaccine pipeline:\n$JNJ (1-shot) vaccine on track for EUA fil\xe2\x80\xa6'"
2021-01-06,"b""@MY21_Oracle @DianaEPatterson @slarratt1 @wheeliedealer @dhovekamp42 @AstraZeneca @sunsuneti1 @AstraZenecaUS @Accendo_mike @UniofOxford @nypost @Reuters @JMahony_IG @FiercePharma @AlexionPharma #AZN \xc2\xa375.12 #PHARMA #AI #RareDiseases \n\n\xf0\x9f\xa4\x93An interesting under the radar development as the co $AZN are looking to acquire @AlexionPharma $ALXN, buys @RhythmPharma $RYTM' Rare Pediatric Disease Priority Review Voucher (PRV) for $100M\xe2\x9c\x85 \nhttps://t.co/CsI6HHGFqf #IMCIVREE\xe2\x84\xa2 #POMC https://t.co/DIBGNX5hBG"""
2021-01-06,"b'RT @RebeccaDRobbins: In OWS briefing, Moncef Slaoui just provided an update on vaccine pipeline:\n$JNJ (1-shot) vaccine on track for EUA fil\xe2\x80\xa6'"
2021-01-06,"b'RT @RebeccaDRobbins: In OWS briefing, Moncef Slaoui just provided an update on vaccine pipeline:\n$JNJ (1-shot) vaccine on track for EUA fil\xe2\x80\xa6'"
2021-01-06,"b'RT @RebeccaDRobbins: In OWS briefing, Moncef Slaoui just provided an update on vaccine pipeline:\n$JNJ (1-shot) vaccine on track for EUA fil\xe2\x80\xa6'"
2021-01-06,"b'RT @RebeccaDRobbins: In OWS briefing, Moncef Slaoui just provided an update on vaccine pipeline:\n$JNJ (1-shot) vaccine on track for EUA fil\xe2\x80\xa6'"
2021-01-06,"b'RT @RebeccaDRobbins: In OWS briefing, Moncef Slaoui just provided an update on vaccine pipeline:\n$JNJ (1-shot) vaccine on track for EUA fil\xe2\x80\xa6'"
2021-01-06,b'$amzn $nflx $sbux $zm $fb $wmt $aapl $ino $nvda $amd $aapl $uvxy $sbux $msft $twtr $roku $nkla $regn $azn $idex $mrna $plug $solo $wkhs $crm $work $crwd $snow $splk $spot $okta $nvax $aal $docu $lazr $lmnd $lyft\n\nGet $5000 Deposit bonus\noffers link \n\xe2\xac\x87\xef\xb8\x8f\xe2\xac\x87\xef\xb8\x8f\nhttps://t.co/M6G7AHXdPU https://t.co/HjoaNRcaob'
2021-01-06,"b'RT @CoronaStocks: Columbia is the Latest Country to Approve Pfizer/BioNTech #COVID19 Vaccine\xf0\x9f\xa4\x97\n\nColumbia joins Mexico, Chile and Costa Rica\xe2\x80\xa6'"
2021-01-06,"b'RT @RebeccaDRobbins: In OWS briefing, Moncef Slaoui just provided an update on vaccine pipeline:\n$JNJ (1-shot) vaccine on track for EUA fil\xe2\x80\xa6'"
2021-01-06,"b'RT @RebeccaDRobbins: In OWS briefing, Moncef Slaoui just provided an update on vaccine pipeline:\n$JNJ (1-shot) vaccine on track for EUA fil\xe2\x80\xa6'"
2021-01-06,b'*SLAOUI SAYS WINDOW FOR ASTRAZENECA FILING FOR EMERGENCY USE IN U.S. TRIAL WOULD OPEN IN FIRST WEEK OF MARCH.\n\n$AZN HHS BRIEFING'
2021-01-06,b'RT @SarahKarlin: another vaccine timing update $AZN could file as soon as first week of March. #Covid19'
2021-01-06,"b'RT @RebeccaDRobbins: In OWS briefing, Moncef Slaoui just provided an update on vaccine pipeline:\n$JNJ (1-shot) vaccine on track for EUA fil\xe2\x80\xa6'"
2021-01-06,b'another vaccine timing update $AZN could file as soon as first week of March. #Covid19'
2021-01-06,"b'RT @RebeccaDRobbins: In OWS briefing, Moncef Slaoui just provided an update on vaccine pipeline:\n$JNJ (1-shot) vaccine on track for EUA fil\xe2\x80\xa6'"
2021-01-06,"b'In OWS briefing, Moncef Slaoui just provided an update on vaccine pipeline:\n$JNJ (1-shot) vaccine on track for EUA filing by the end of Jan.\n$AZN (2-shot) vaccine trial in US reaching its end, a few sites still recruiting minorities. Window for EUA filing opens first week of Mar'"
2021-01-06,b'$AZN \n OWS CHIEF ADVISER SLAOUI SAYS WINDOW FOR ASTRAZENCA FILING FOR EUA BASED IN U.S. TRIAL WOULD OPEN IN FIRST WEEK OF MARCH: HHS BRIEFING'
2021-01-06,b'$CVM CEL-SCI stock looking great.  Up 4.3% today and 46% for the past year                                 $IBB $XBI $AZN $PFE $MRNA $SPY $QQQ $DJIA $DIA #stockmarket #investing #finance #stocks $AAPL $TSLA $AMZN $INTC $NFLX $AMD #economy'
2021-01-06,"b'$ions $alny $biib $azn $amgn $regn l think it speaks just to the enormous potential that drugging #RNA has, unlocking an entirely new set of drugs for the industry would be huge,\xe2\x80\x9d says #Ribometrix CEO Solomon, 15 mos after inking a deal to work with $vrtx  https://t.co/XZFEs9qHIU'"
2021-01-06,b'Roche adds to RNA drug deal streak with Ribometrix partnership https://t.co/8CJIzOGnKp $RHHBY $VRTX $AZN $MRK $BIIB'
2021-01-06,"b'Where is Jack Ma? Alibaba Set To Raise Up To $8B in 10Y Bonds\n\nThe debt offering is likely to be watched closely and could be seen as a test of confidence in #Alibaba, which has been facing regulatory scrutiny.\n\n$BABA $AZN #technology #investors #stocks\n\nhttps://t.co/lQ9h9Sm9gI'"
2021-01-06,"b'\xe2\x80\x9cGeraldo Barbosa, head of the Brazilian Association of Vaccine Clinics who will lead a delegation to India departing on Monday, said a memorandum of understanding has already been signed with Bharat Biotech\xe2\x80\x9c $OCGN $CVAC $AZN $MRNA $PFE https://t.co/Oz3Wh8v1ld'"
2021-01-06,"b""RT @ByJoFagg: While two #covid19 vaccines were granted EUAs last month there were still some big regulatory disappointments, here's my trac\xe2\x80\xa6"""
2021-01-06,b'RT @davidmoadel: Biotech Runner in the Making: FDA Green Light Could Be Any Day Now! https://t.co/LkC53Pa35g $CVM $IBB $XBI $MRNA $AZN $PFE\xe2\x80\xa6'
2021-01-06,"b'The first in our series of #data stories and this one covers M&amp;A: Astrazeneca shows megamergers were still possible in 2020 (Via @ByLisaU and @EdwinElmhirst, @evaluatepharma data) https://t.co/425dQ6Mqlt $AZN $BMY $GILD $JNJ $MRK https://t.co/cl6yN43iT5'"
2021-01-06,"b""RT @ByJoFagg: While two #covid19 vaccines were granted EUAs last month there were still some big regulatory disappointments, here's my trac\xe2\x80\xa6"""
2021-01-06,"b""RT @ByJoFagg: While two #covid19 vaccines were granted EUAs last month there were still some big regulatory disappointments, here's my trac\xe2\x80\xa6"""
2021-01-06,"b""While two #covid19 vaccines were granted EUAs last month there were still some big regulatory disappointments, here's my tracker of #FDA\xf0\x9f\x91\x8d\xf0\x9f\x91\x8e $NVS $AZN $FGEN $BMY $BCRX $SCPH #Pdufa https://t.co/ocOtbRZrGq"""
2021-01-06,b'EU Expected to Green Light Moderna Vaccine Within Days\xf0\x9f\xa4\x97\n\nThe EU has purchased 160M doses of the $MRNA #COVID19 #vaccine along with 300M doses from Pfizer/BioNTech and has supply agreements with $AZN $CVAC $JNJ Sanofi/ $GSK\n\n#investors #biotec\n\nhttps://t.co/DLddx0C3eF'
2021-01-06,"b""RT @sbwcws: AstraZeneca's COVID vaccine gets emergency use authorization in 5 more countries\n$AZN"""
2021-01-06,b'Biotech Runner in the Making: FDA Green Light Could Be Any Day Now! https://t.co/LkC53Pa35g $CVM $IBB $XBI $MRNA $AZN $PFE $NIO $CGC $APHA #biotechs @CelSciCorp $PLUG $SPY $FCEL $QQQ $DJIA $DIA #stockmarket #investing #finance #stocks $AAPL $TSLA $AMZN $INTC $NFLX $AMD #economy'
2021-01-06,b'#European regulators approve #Moderna ( $MRNA ) #covid #vaccine for use in the #EU. #stonks \xf0\x9f\x92\x8e\xf0\x9f\x97\xbd\n\n$SPY $QQQ $PFE $AZN\n\n#rudereport #violetpill #rudereporters #stocks #economy \n\nhttps://t.co/ZLV7UWQuM7'
2021-01-06,"b'@Holly4KJ @angie_rasmussen But $MRNA has even more data (evidence) on this than $BNTX / $PFE. As does $AZN, thanks to conducting their phase 3 trial in a rather chaotic way :)'"
2021-01-06,"b'Columbia is the Latest Country to Approve Pfizer/BioNTech #COVID19 Vaccine\xf0\x9f\xa4\x97\n\nColumbia joins Mexico, Chile and Costa Rica in approving the Pfizer #vaccine to start immunization. The country has secured 10M doses of the vaccine.\n\n$PFE $BNTX $AZN $JNJ $NVAX\n\nhttps://t.co/CMDBZbLqUj'"
2021-01-06,b'Optimus v4\n2021-01-06 09:45 ET. *Closed/Sold:\n$AZN at $51.18 for 1.57 profit (3.17%). AstraZeneca PLC (CORP).\nTrade Id: 62866081703076954.\nStats: https://t.co/oAX4hq6SAg'
2021-01-06,"b""Today's Market Heatmap - January 6\n\n$AMZN -1.81%\n$TSLA +3.02%\n$PFE -0.27%\n$AAPL -3.01%\n$UNH -1.36%\n$MRNA +1.56%\n$BABA -2.99%\n$CHNG +31.55%\n$ABC +7.41%\n$WBA +2.53%\n$MSFT -2.21%\n$AZN +0.43%\n$CVS +0.72%\n$GOOGL -1.98%\n$GOOG -2.02%\n$WMT +0.77% https://t.co/dq7AZ0p6JO"""
2021-01-06,"b'With the 1st report of variants escaping $PFE $AZN &amp; $MRNA immunogenicity - Covivax importance will be realized : \xe2\x80\x9cThe director-general of the ICMR, Dr Balram Bhargava, too, had expressed confidence the vaccine would be effective against new variants of the coronavirus.\xe2\x80\x9d $OCGN'"
2021-01-06,"b'RT @IOInvestors: Early premarket gappers \n\nGapping up:  \n\n$CHNG +37.7%, $CALM +8.2%, $CHU +4.4%, $WFC +2.9%, $PAC +2.8%, $CHL +2.4%, $ACMR\xe2\x80\xa6'"
2021-01-06,b'Most active at the open - $CHNG $ACB $BNGO $AAPL $BAC $AAL $BP $APHA $CGC $CCL $AZN $CAN $ACEV $BTBT $AMC $BBD $BKYI $BABA $BCS $BLNK $CLNE $CHL $AMD $BPH $C $BFT $CLF $BA $BBBY $AMZN $ARE $BYND $CLVR $AREC $CLSD $CHU $CLSK $AUY $BE $AQMS $BB $BBVA $AHCO $ABB $CCNC $AMRS $CMCSA https://t.co/C4sZjQiR47'
2021-01-06,"b""FDA Opposes Dilution of COVID-19 Vaccine Doses: Here's Why. $AZN $PFE $BNTX $MRNA https://t.co/gZUA06B7XO"""
2021-01-06,b'Create watchlist to track major constituents of #Nasdaq 100 $RDS $BP $AZN https://t.co/aT2aUz8Ka2 https://t.co/jkK5hEhGYg'
2021-01-06,b'$AZN Bullish News &amp; Potential BUY Signal:\nBRIEF-Astrazeneca Says Continues To Seek Further Approvals For Vaccine After India Authorisation\nREUTERS 9:03 AM 1/6/2021'
2021-01-06,b'UBS economist &amp; strategist to hold an analyst/industry conference call\n$PFE $MRNA $AZN $NVAX $INO'
2021-01-06,"b'#Stockmarket Live: Aftermath of Blue #StocksToWatch: $IPOC, $ACRX, $BTWN, $CCIV, $AZN https://t.co/pM2TVnEwHF'"
2021-01-06,"b'#Stockmarket Live: Aftermath of Blue #StocksToWatch: $IPOC, $ACRX, $BTWN, $CCIV, $AZN https://t.co/vwbpnB4xz1'"
2021-01-06,"b'Early premarket gappers \n\nGapping up:  \n\n$CHNG +37.7%, $CALM +8.2%, $CHU +4.4%, $WFC +2.9%, $PAC +2.8%, $CHL +2.4%, $ACMR +2.2%, $CLDT +2%, $MYGN +1.9%, $PRSC +1.8%, $AWH +1.6%, $AZN +1.1%, $FIX +1%, $FATE +1%, $GRBK +0.9%, $PROF +0.9%, $CHA +0.7%, $T +0.5%'"
2021-01-06,b'$AZN +1.3% (receives Priority Review from FDA for Farxiga)  \n\n$OII +1.3% (Oceaneering Intl integrity management and digital solutions segment announces recent contract wins exceeding $250 million)'
2021-01-06,b'RT @bio_clouseau: The $RYTM PRV seems to have been purchased by $ALXN $AZN https://t.co/bmhpDUguKi'
2021-01-06,"b""AstraZeneca's COVID vaccine gets emergency use authorization in 5 more countries\n$AZN"""
2021-01-06,"b'$AZN ASTRAZENECA - IN ADDITION TO PROGRAMME LED BY OXFORD UNIVERSITY, ASTRAZENECA IS CONDUCTING A LARGE TRIAL IN US AND GLOBALLY'"
2021-01-06,b'Congrats to $ISR shareholders! Is $RDGL next? I sure hope so. FDA update by 01-16-21. $AYTU $AIM $NVAX $INO $XSPA $AIKI $SNY $SIGA $LEG $GILD $AZN $ACB $GNFT $ENZC $HTBX https://t.co/vdi69DHpCO'
2021-01-06,"b""FDA Grants Priority Review to $AZN 's FARXIGA for the treatment of patients with chronic kidney disease      #AstraZeneca   #CKD     #ChronicKidneyDisease      https://t.co/mNw8szIDyN"""
2021-01-06,"b'Gapping up:\n$CHNG +37.7%, $CALM +8.2%, $CHU +4.4%, $WFC +2.9%, $PAC +2.8%, $CHL +2.4%, $ACMR +2.2%, $CLDT +2%, $MYGN +1.9%, $PRSC +1.8%, $AWH +1.6%, $AZN +1.1%, $FIX +1%, $FATE +1%,'"
2021-01-06,b'RT @CoronaStocks: Has a COVID-19 Vaccine Price War Started?\n\n.@Pfizer just discounted #COVID19 #vaccines @ $10/dose in an offer to South Af\xe2\x80\xa6'
2021-01-06,b'RT @bio_clouseau: The $RYTM PRV seems to have been purchased by $ALXN $AZN https://t.co/bmhpDUguKi'
2021-01-06,b'$AZN\nAstraZeneca Announces FARXIGA Granted Priority Review In US For Treatment Of Patients With Chronic Kidney Disease'
2021-01-06,b'RT @bio_clouseau: The $RYTM PRV seems to have been purchased by $ALXN $AZN https://t.co/bmhpDUguKi'
2021-01-06,b'RT @LiveSquawk: $AZN | AstraZeneca\xe2\x80\x99s Farxiga Gets US Priority Review For Kidney Disease'
2021-01-06,b'$AZN FARXIGA Granted Priority Review in the US for the Treatment of Patients With Chronic Kidney Disease\nhttps://t.co/nLa2xPJocl'
2021-01-06,"b""$AZN\nAstraZeneca's Farxiga granted priority review in the U.S. in CKD treatment AstraZeneca's Farxiga, or dapagliflozin, has been granted Priority Review in the US for the treatment of new or worsening chronic kidney disease, or... https://t.co/X8lzJvjjXh"""
2021-01-06,b'RT @Live_News_Nick: *GERMAN HEALTH MINISTER SAYS WE HAVE ORDERED MORE THAN ENOUGH VACCINES FOR EVERYONE.\n\n*GERMAN HEALTH MINISTER SAYS GERM\xe2\x80\xa6'
2021-01-06,"b""WRAPUP 1-Dutch play catch-up in Europe's patchy COVID-19 vaccine drive $MRNA $PFE $AZN $SVA https://t.co/jUFM9FURpl"""
2021-01-06,b'$AZN Farxiga granted Priority Review for the treatment of patients with CKD.  PDUFA Q2\n\nhttps://t.co/sWgCVBrjP6'
2021-01-06,b'RT @LiveSquawk: $AZN | AstraZeneca\xe2\x80\x99s Farxiga Gets US Priority Review For Kidney Disease'
2021-01-06,b'$AZN | AstraZeneca\xe2\x80\x99s Farxiga Gets US Priority Review For Kidney Disease'
2021-01-06,b'Alert  / Form 6-K filed with the SEC  $AZN #Astrazeneca Plc  https://t.co/hzSqtO64iE'
2021-01-06,b'*GERMAN HEALTH MINISTER SAYS WE HAVE ORDERED MORE THAN ENOUGH VACCINES FOR EVERYONE.\n\n*GERMAN HEALTH MINISTER SAYS GERMANY TO RECEIVE MORE THAN 130M DOSES OF BIONTECH/PFIZER AND MODERNA VACCINES.\n\n$BNTX $MRNA $PFE $AZN @Reuters'
2021-01-06,"b""$AG $AZN $GDDY - 3 Top Stocks That'll Make You Richer in January (and Beyond) https://t.co/rdBMP2EEME https://t.co/mduhXCKHUk"""
2021-01-06,b'German Health Minister Says We Have Ordered More Than Enough Vaccines For Everyone\n$PFE $MRNA $AZN #COVID19 #vaccine'
